{
  "resourceType": "Bundle",
  "id": "297c21306d5ed77ccb098b91f92361b328e6806b0aa85aef7e2a3546dd625110",
  "type": "transaction",
  "entry": [
    {
      "fullUrl": "List/5c0f40028e0309d147cac0d68ca7829d57162f08a570c73dcae0a460c6085d5b",
      "resource": {
        "resourceType": "List",
        "id": "5c0f40028e0309d147cac0d68ca7829d57162f08a570c73dcae0a460c6085d5b",
        "meta": {
          "profile": [
            "https://www.medizininformatik-initiative.de/fhir/core/modul-medikation/StructureDefinition/medikationsliste"
          ]
        },
        "identifier": [
          {
            "system": "https://fhir.miracum.org/nlp/identifiers/discharge-medication-list",
            "value": "discharge_list_empty-document"
          }
        ],
        "status": "current",
        "mode": "snapshot",
        "title": "List of discharge medication",
        "code": {
          "coding": [
            {
              "system": "http://terminology.hl7.org/CodeSystem/list-example-use-codes",
              "code": "medications"
            },
            {
              "system": "http://ihe-d.de/CodeSystems/FallkontextBeiDokumentenerstellung",
              "code": "E230"
            }
          ],
          "text": "List Code"
        },
        "subject": {
          "reference": "Patient/Test",
          "type": "Patient"
        },
        "date": "2000-01-01T00:00:00+00:00",
        "emptyReason": {
          "text": "No discharge entries in document found."
        }
      },
      "request": {
        "method": "PUT",
        "url": "List/5c0f40028e0309d147cac0d68ca7829d57162f08a570c73dcae0a460c6085d5b"
      }
    },
    {
      "fullUrl": "List/8704d9a2465b3acf09870d9536949691115a47eefbfdc1d471522a7bec677b99",
      "resource": {
        "resourceType": "List",
        "id": "8704d9a2465b3acf09870d9536949691115a47eefbfdc1d471522a7bec677b99",
        "meta": {
          "profile": [
            "https://www.medizininformatik-initiative.de/fhir/core/modul-medikation/StructureDefinition/medikationsliste"
          ]
        },
        "identifier": [
          {
            "system": "https://fhir.miracum.org/nlp/identifiers/admission-medication-list",
            "value": "admission_list_empty-document"
          }
        ],
        "status": "current",
        "mode": "snapshot",
        "title": "List of admission medication",
        "code": {
          "coding": [
            {
              "system": "http://terminology.hl7.org/CodeSystem/list-example-use-codes",
              "code": "medications"
            },
            {
              "system": "http://ihe-d.de/CodeSystems/FallkontextBeiDokumentenerstellung",
              "code": "E210"
            }
          ],
          "text": "List Code"
        },
        "subject": {
          "reference": "Patient/Test",
          "type": "Patient"
        },
        "date": "2000-01-01T00:00:00+00:00",
        "emptyReason": {
          "text": "No admission entries in document found."
        }
      },
      "request": {
        "method": "PUT",
        "url": "List/8704d9a2465b3acf09870d9536949691115a47eefbfdc1d471522a7bec677b99"
      }
    },
    {
      "fullUrl": "List/92501bc0575c774db6de289a0cb84715dfe4ef168d9fdb7ebd31a0988e1274a2",
      "resource": {
        "resourceType": "List",
        "id": "92501bc0575c774db6de289a0cb84715dfe4ef168d9fdb7ebd31a0988e1274a2",
        "meta": {
          "profile": [
            "https://www.medizininformatik-initiative.de/fhir/core/modul-medikation/StructureDefinition/medikationsliste"
          ]
        },
        "identifier": [
          {
            "system": "https://fhir.miracum.org/nlp/identifiers/inpatient-medication-list",
            "value": "inpatient_list_empty-document"
          }
        ],
        "status": "current",
        "mode": "working",
        "title": "List of inpatient medication",
        "code": {
          "coding": [
            {
              "system": "http://terminology.hl7.org/CodeSystem/list-example-use-codes",
              "code": "medications"
            },
            {
              "system": "http://ihe-d.de/CodeSystems/FallkontextBeiDokumentenerstellung",
              "code": "E200"
            }
          ],
          "text": "List Code"
        },
        "subject": {
          "reference": "Patient/Test",
          "type": "Patient"
        },
        "date": "2000-01-01T00:00:00+00:00",
        "emptyReason": {
          "text": "No inpatient entries in document found."
        }
      },
      "request": {
        "method": "PUT",
        "url": "List/92501bc0575c774db6de289a0cb84715dfe4ef168d9fdb7ebd31a0988e1274a2"
      }
    },
    {
      "fullUrl": "Condition/22db26747fbb8a82d427449667d5ff1803a03ca73c1e308c3bc5768c1f75cd1a",
      "resource": {
        "resourceType": "Condition",
        "id": "22db26747fbb8a82d427449667d5ff1803a03ca73c1e308c3bc5768c1f75cd1a",
        "meta": {
          "profile": [
            "https://www.medizininformatik-initiative.de/fhir/core/modul-diagnose/StructureDefinition/Diagnose"
          ]
        },
        "identifier": [
          {
            "system": "https://fhir.miracum.org/nlp/identifiers/de-averbis-types-health-diagnosis",
            "value": "empty-document_538-566_ICD10GM_2020-R53"
          }
        ],
        "code": {
          "coding": [
            {
              "system": "http://fhir.de/CodeSystem/dimdi/icd-10-gm",
              "version": "2020",
              "code": "R53",
              "display": "Asthenie",
              "userSelected": false
            }
          ]
        },
        "subject": {
          "reference": "Patient/Test",
          "type": "Patient"
        },
        "recordedDate": "2000-01-01T00:00:00+00:00"
      },
      "request": {
        "method": "PUT",
        "url": "Condition/22db26747fbb8a82d427449667d5ff1803a03ca73c1e308c3bc5768c1f75cd1a"
      }
    },
    {
      "fullUrl": "Condition/0686e19f07dbaf90e251b9f98ff7c7a887bcc03c69cb7e39d0aafad5c1cfb35d",
      "resource": {
        "resourceType": "Condition",
        "id": "0686e19f07dbaf90e251b9f98ff7c7a887bcc03c69cb7e39d0aafad5c1cfb35d",
        "meta": {
          "profile": [
            "https://www.medizininformatik-initiative.de/fhir/core/modul-diagnose/StructureDefinition/Diagnose"
          ]
        },
        "identifier": [
          {
            "system": "https://fhir.miracum.org/nlp/identifiers/de-averbis-types-health-diagnosis",
            "value": "empty-document_633-639_ICD10GM_2020-R05"
          }
        ],
        "code": {
          "coding": [
            {
              "system": "http://fhir.de/CodeSystem/dimdi/icd-10-gm",
              "version": "2020",
              "code": "R05",
              "display": "Husten",
              "userSelected": false
            }
          ]
        },
        "subject": {
          "reference": "Patient/Test",
          "type": "Patient"
        },
        "recordedDate": "2000-01-01T00:00:00+00:00"
      },
      "request": {
        "method": "PUT",
        "url": "Condition/0686e19f07dbaf90e251b9f98ff7c7a887bcc03c69cb7e39d0aafad5c1cfb35d"
      }
    },
    {
      "fullUrl": "Condition/e852b906f4750456bb386d91ac9c48828f1b8fe266e33e6707b8ba0dc6fb6a6e",
      "resource": {
        "resourceType": "Condition",
        "id": "e852b906f4750456bb386d91ac9c48828f1b8fe266e33e6707b8ba0dc6fb6a6e",
        "meta": {
          "profile": [
            "https://www.medizininformatik-initiative.de/fhir/core/modul-diagnose/StructureDefinition/Diagnose"
          ]
        },
        "identifier": [
          {
            "system": "https://fhir.miracum.org/nlp/identifiers/de-averbis-types-health-diagnosis",
            "value": "empty-document_1346-1357_ICD10GM_2020-D72.8"
          }
        ],
        "code": {
          "coding": [
            {
              "system": "http://fhir.de/CodeSystem/dimdi/icd-10-gm",
              "version": "2020",
              "code": "D72.8",
              "display": "Leukozytose",
              "userSelected": false
            }
          ]
        },
        "subject": {
          "reference": "Patient/Test",
          "type": "Patient"
        },
        "recordedDate": "2000-01-01T00:00:00+00:00"
      },
      "request": {
        "method": "PUT",
        "url": "Condition/e852b906f4750456bb386d91ac9c48828f1b8fe266e33e6707b8ba0dc6fb6a6e"
      }
    },
    {
      "fullUrl": "Condition/2e83fd912cd472e3944dc30d6fdb7b1e057d0d1472f9e08a67cb4c7cc663fd47",
      "resource": {
        "resourceType": "Condition",
        "id": "2e83fd912cd472e3944dc30d6fdb7b1e057d0d1472f9e08a67cb4c7cc663fd47",
        "meta": {
          "profile": [
            "https://www.medizininformatik-initiative.de/fhir/core/modul-diagnose/StructureDefinition/Diagnose"
          ]
        },
        "identifier": [
          {
            "system": "https://fhir.miracum.org/nlp/identifiers/de-averbis-types-health-diagnosis",
            "value": "empty-document_1615-1622_ICD10GM_2020-R06.0"
          }
        ],
        "code": {
          "coding": [
            {
              "system": "http://fhir.de/CodeSystem/dimdi/icd-10-gm",
              "version": "2020",
              "code": "R06.0",
              "display": "Dyspnoe",
              "userSelected": false
            }
          ]
        },
        "subject": {
          "reference": "Patient/Test",
          "type": "Patient"
        },
        "recordedDate": "2000-01-01T00:00:00+00:00"
      },
      "request": {
        "method": "PUT",
        "url": "Condition/2e83fd912cd472e3944dc30d6fdb7b1e057d0d1472f9e08a67cb4c7cc663fd47"
      }
    },
    {
      "fullUrl": "Condition/30db365b30a61f4ccc656fdc3538cf71066e136beeca78fe1cf2ef00d04fa464",
      "resource": {
        "resourceType": "Condition",
        "id": "30db365b30a61f4ccc656fdc3538cf71066e136beeca78fe1cf2ef00d04fa464",
        "meta": {
          "profile": [
            "https://www.medizininformatik-initiative.de/fhir/core/modul-diagnose/StructureDefinition/Diagnose"
          ]
        },
        "identifier": [
          {
            "system": "https://fhir.miracum.org/nlp/identifiers/de-averbis-types-health-diagnosis",
            "value": "empty-document_2085-2116_ICD10GM_2020-J98.8"
          }
        ],
        "code": {
          "coding": [
            {
              "system": "http://fhir.de/CodeSystem/dimdi/icd-10-gm",
              "version": "2020",
              "code": "J98.8",
              "display": "Sonstige näher bezeichnete Krankheiten der Atemwege",
              "userSelected": false
            }
          ]
        },
        "subject": {
          "reference": "Patient/Test",
          "type": "Patient"
        },
        "recordedDate": "2000-01-01T00:00:00+00:00"
      },
      "request": {
        "method": "PUT",
        "url": "Condition/30db365b30a61f4ccc656fdc3538cf71066e136beeca78fe1cf2ef00d04fa464"
      }
    },
    {
      "fullUrl": "Condition/cf013d9ceb0e303305b830d5262e7b7a155eb9dc9790e4f9fbf8ace29cb6437d",
      "resource": {
        "resourceType": "Condition",
        "id": "cf013d9ceb0e303305b830d5262e7b7a155eb9dc9790e4f9fbf8ace29cb6437d",
        "meta": {
          "profile": [
            "https://www.medizininformatik-initiative.de/fhir/core/modul-diagnose/StructureDefinition/Diagnose"
          ]
        },
        "identifier": [
          {
            "system": "https://fhir.miracum.org/nlp/identifiers/de-averbis-types-health-diagnosis",
            "value": "empty-document_2696-2707_ICD10GM_2020-D72.8"
          }
        ],
        "code": {
          "coding": [
            {
              "system": "http://fhir.de/CodeSystem/dimdi/icd-10-gm",
              "version": "2020",
              "code": "D72.8",
              "display": "Leukozytose",
              "userSelected": false
            }
          ]
        },
        "subject": {
          "reference": "Patient/Test",
          "type": "Patient"
        },
        "recordedDate": "2000-01-01T00:00:00+00:00"
      },
      "request": {
        "method": "PUT",
        "url": "Condition/cf013d9ceb0e303305b830d5262e7b7a155eb9dc9790e4f9fbf8ace29cb6437d"
      }
    },
    {
      "fullUrl": "Condition/71dd174faab5eee3acf62fbde3776f7966e1deaba2b5b52851b3c647b8d3e9ef",
      "resource": {
        "resourceType": "Condition",
        "id": "71dd174faab5eee3acf62fbde3776f7966e1deaba2b5b52851b3c647b8d3e9ef",
        "meta": {
          "profile": [
            "https://www.medizininformatik-initiative.de/fhir/core/modul-diagnose/StructureDefinition/Diagnose"
          ]
        },
        "identifier": [
          {
            "system": "https://fhir.miracum.org/nlp/identifiers/de-averbis-types-health-diagnosis",
            "value": "empty-document_2813-2819_ICD10GM_2020-A41.9"
          }
        ],
        "code": {
          "coding": [
            {
              "system": "http://fhir.de/CodeSystem/dimdi/icd-10-gm",
              "version": "2020",
              "code": "A41.9",
              "display": "Sepsis",
              "userSelected": false
            }
          ]
        },
        "subject": {
          "reference": "Patient/Test",
          "type": "Patient"
        },
        "recordedDate": "2000-01-01T00:00:00+00:00"
      },
      "request": {
        "method": "PUT",
        "url": "Condition/71dd174faab5eee3acf62fbde3776f7966e1deaba2b5b52851b3c647b8d3e9ef"
      }
    },
    {
      "fullUrl": "Condition/b9f88653d776bed9b708cdbe68c0880021f29bd277a0f7c9b52264827b6a4a2a",
      "resource": {
        "resourceType": "Condition",
        "id": "b9f88653d776bed9b708cdbe68c0880021f29bd277a0f7c9b52264827b6a4a2a",
        "meta": {
          "profile": [
            "https://www.medizininformatik-initiative.de/fhir/core/modul-diagnose/StructureDefinition/Diagnose"
          ]
        },
        "identifier": [
          {
            "system": "https://fhir.miracum.org/nlp/identifiers/de-averbis-types-health-diagnosis",
            "value": "empty-document_3025-3061_ICD10GM_2020-A49.8"
          }
        ],
        "code": {
          "coding": [
            {
              "system": "http://fhir.de/CodeSystem/dimdi/icd-10-gm",
              "version": "2020",
              "code": "A49.8",
              "display": "Sonstige bakterielle Infektion, o.n.A.",
              "userSelected": false
            }
          ]
        },
        "subject": {
          "reference": "Patient/Test",
          "type": "Patient"
        },
        "recordedDate": "2000-01-01T00:00:00+00:00"
      },
      "request": {
        "method": "PUT",
        "url": "Condition/b9f88653d776bed9b708cdbe68c0880021f29bd277a0f7c9b52264827b6a4a2a"
      }
    },
    {
      "fullUrl": "Condition/746f2f22f09187257a61148e34a8e05e95fa52c42dcbd123244573c932b2306e",
      "resource": {
        "resourceType": "Condition",
        "id": "746f2f22f09187257a61148e34a8e05e95fa52c42dcbd123244573c932b2306e",
        "meta": {
          "profile": [
            "https://www.medizininformatik-initiative.de/fhir/core/modul-diagnose/StructureDefinition/Diagnose"
          ]
        },
        "identifier": [
          {
            "system": "https://fhir.miracum.org/nlp/identifiers/de-averbis-types-health-diagnosis",
            "value": "empty-document_3361-3372_ICD10GM_2020-D72.8"
          }
        ],
        "code": {
          "coding": [
            {
              "system": "http://fhir.de/CodeSystem/dimdi/icd-10-gm",
              "version": "2020",
              "code": "D72.8",
              "display": "Leukozytose",
              "userSelected": false
            }
          ]
        },
        "subject": {
          "reference": "Patient/Test",
          "type": "Patient"
        },
        "recordedDate": "2000-01-01T00:00:00+00:00"
      },
      "request": {
        "method": "PUT",
        "url": "Condition/746f2f22f09187257a61148e34a8e05e95fa52c42dcbd123244573c932b2306e"
      }
    },
    {
      "fullUrl": "Condition/a5ddefa39efbb300a447f64769066b6e21b551cb3bb4f1babd791143636c8ee7",
      "resource": {
        "resourceType": "Condition",
        "id": "a5ddefa39efbb300a447f64769066b6e21b551cb3bb4f1babd791143636c8ee7",
        "meta": {
          "profile": [
            "https://www.medizininformatik-initiative.de/fhir/core/modul-diagnose/StructureDefinition/Diagnose"
          ]
        },
        "identifier": [
          {
            "system": "https://fhir.miracum.org/nlp/identifiers/de-averbis-types-health-diagnosis",
            "value": "empty-document_3421-3440_ICD10GM_2020-K81.0"
          }
        ],
        "code": {
          "coding": [
            {
              "system": "http://fhir.de/CodeSystem/dimdi/icd-10-gm",
              "version": "2020",
              "code": "K81.0",
              "display": "Akute Cholezystitis",
              "userSelected": false
            }
          ]
        },
        "subject": {
          "reference": "Patient/Test",
          "type": "Patient"
        },
        "recordedDate": "2000-01-01T00:00:00+00:00"
      },
      "request": {
        "method": "PUT",
        "url": "Condition/a5ddefa39efbb300a447f64769066b6e21b551cb3bb4f1babd791143636c8ee7"
      }
    },
    {
      "fullUrl": "Condition/3a40d664c023b417db56893e8e949c1cfc9880c37725bfe5feba49d605e03d0c",
      "resource": {
        "resourceType": "Condition",
        "id": "3a40d664c023b417db56893e8e949c1cfc9880c37725bfe5feba49d605e03d0c",
        "meta": {
          "profile": [
            "https://www.medizininformatik-initiative.de/fhir/core/modul-diagnose/StructureDefinition/Diagnose"
          ]
        },
        "identifier": [
          {
            "system": "https://fhir.miracum.org/nlp/identifiers/de-averbis-types-health-diagnosis",
            "value": "empty-document_3997-4019_ICD10GM_2020-N17.99"
          }
        ],
        "code": {
          "coding": [
            {
              "system": "http://fhir.de/CodeSystem/dimdi/icd-10-gm",
              "version": "2020",
              "code": "N17.99",
              "display": "Akutes Nierenversagen",
              "userSelected": false
            }
          ]
        },
        "subject": {
          "reference": "Patient/Test",
          "type": "Patient"
        },
        "recordedDate": "2000-01-01T00:00:00+00:00"
      },
      "request": {
        "method": "PUT",
        "url": "Condition/3a40d664c023b417db56893e8e949c1cfc9880c37725bfe5feba49d605e03d0c"
      }
    },
    {
      "fullUrl": "Condition/23dd09f0b85ea037790978abb86722945ece7b786d41ef298f4b43cca68b280b",
      "resource": {
        "resourceType": "Condition",
        "id": "23dd09f0b85ea037790978abb86722945ece7b786d41ef298f4b43cca68b280b",
        "meta": {
          "profile": [
            "https://www.medizininformatik-initiative.de/fhir/core/modul-diagnose/StructureDefinition/Diagnose"
          ]
        },
        "identifier": [
          {
            "system": "https://fhir.miracum.org/nlp/identifiers/de-averbis-types-health-diagnosis",
            "value": "empty-document_4618-4646_ICD10GM_2020-R53"
          }
        ],
        "code": {
          "coding": [
            {
              "system": "http://fhir.de/CodeSystem/dimdi/icd-10-gm",
              "version": "2020",
              "code": "R53",
              "display": "Asthenie",
              "userSelected": false
            }
          ]
        },
        "subject": {
          "reference": "Patient/Test",
          "type": "Patient"
        },
        "recordedDate": "2000-01-01T00:00:00+00:00"
      },
      "request": {
        "method": "PUT",
        "url": "Condition/23dd09f0b85ea037790978abb86722945ece7b786d41ef298f4b43cca68b280b"
      }
    },
    {
      "fullUrl": "Condition/b1845d8977c1fa744e9785e7269b7f7580bc5633d61a5948b8ca5f561014aaff",
      "resource": {
        "resourceType": "Condition",
        "id": "b1845d8977c1fa744e9785e7269b7f7580bc5633d61a5948b8ca5f561014aaff",
        "meta": {
          "profile": [
            "https://www.medizininformatik-initiative.de/fhir/core/modul-diagnose/StructureDefinition/Diagnose"
          ]
        },
        "identifier": [
          {
            "system": "https://fhir.miracum.org/nlp/identifiers/de-averbis-types-health-diagnosis",
            "value": "empty-document_4919-4926_ICD10GM_2020-R06.0"
          }
        ],
        "code": {
          "coding": [
            {
              "system": "http://fhir.de/CodeSystem/dimdi/icd-10-gm",
              "version": "2020",
              "code": "R06.0",
              "display": "Dyspnoe",
              "userSelected": false
            }
          ]
        },
        "subject": {
          "reference": "Patient/Test",
          "type": "Patient"
        },
        "recordedDate": "2000-01-01T00:00:00+00:00"
      },
      "request": {
        "method": "PUT",
        "url": "Condition/b1845d8977c1fa744e9785e7269b7f7580bc5633d61a5948b8ca5f561014aaff"
      }
    },
    {
      "fullUrl": "Device/ed4b6d63186983e8a7d3770ba8802ce6ce3ebb171c8eb4ab5be30c15e60fb7bf",
      "resource": {
        "resourceType": "Device",
        "id": "ed4b6d63186983e8a7d3770ba8802ce6ce3ebb171c8eb4ab5be30c15e60fb7bf",
        "identifier": [
          {
            "system": "https://fhir.miracum.org/nlp/identifiers/averbis-health-discovery-device-id",
            "value": "ahd-v5.29.0"
          }
        ],
        "status": "active",
        "manufacturer": "Averbis GmbH",
        "deviceName": [
          {
            "name": "Averbis Health Discovery",
            "type": "manufacturer-name"
          }
        ],
        "version": [
          {
            "value": "5.29.0"
          }
        ]
      },
      "request": {
        "method": "PUT",
        "url": "Device/ed4b6d63186983e8a7d3770ba8802ce6ce3ebb171c8eb4ab5be30c15e60fb7bf"
      }
    },
    {
      "fullUrl": "Medication/07910b06598920da32f9b1d62844c8cc464684f39cd6b8fc12a36b336b45f866",
      "resource": {
        "resourceType": "Medication",
        "id": "07910b06598920da32f9b1d62844c8cc464684f39cd6b8fc12a36b336b45f866",
        "meta": {
          "profile": [
            "https://www.medizininformatik-initiative.de/fhir/core/modul-medikation/StructureDefinition/Medication"
          ]
        },
        "identifier": [
          {
            "system": "https://fhir.miracum.org/nlp/identifiers/de-averbis-types-health-medication",
            "value": "Sauerstoff"
          }
        ],
        "code": {
          "coding": [
            {
              "system": "http://fhir.de/CodeSystem/dimdi/atc",
              "code": "V03AN01",
              "display": "Sauerstoff"
            }
          ]
        },
        "ingredient": [
          {
            "itemCodeableConcept": {
              "coding": [
                {
                  "system": "http://fhir.de/CodeSystem/dimdi/atc",
                  "display": "Sauerstoff"
                }
              ]
            }
          }
        ]
      },
      "request": {
        "method": "PUT",
        "url": "Medication/07910b06598920da32f9b1d62844c8cc464684f39cd6b8fc12a36b336b45f866"
      }
    },
    {
      "fullUrl": "Medication/871e43c431a094ace0a13c904a5834d909b92379cb6b38cdb58d09a6106e9a3d",
      "resource": {
        "resourceType": "Medication",
        "id": "871e43c431a094ace0a13c904a5834d909b92379cb6b38cdb58d09a6106e9a3d",
        "meta": {
          "profile": [
            "https://www.medizininformatik-initiative.de/fhir/core/modul-medikation/StructureDefinition/Medication"
          ]
        },
        "identifier": [
          {
            "system": "https://fhir.miracum.org/nlp/identifiers/de-averbis-types-health-medication",
            "value": "KONTRASTMITTEL"
          }
        ],
        "code": {
          "coding": [
            {
              "system": "http://fhir.de/CodeSystem/dimdi/atc",
              "code": "V08",
              "display": "KONTRASTMITTEL"
            }
          ]
        },
        "ingredient": [
          {
            "itemCodeableConcept": {
              "coding": [
                {
                  "system": "http://fhir.de/CodeSystem/dimdi/atc",
                  "display": "KONTRASTMITTEL"
                }
              ]
            }
          }
        ]
      },
      "request": {
        "method": "PUT",
        "url": "Medication/871e43c431a094ace0a13c904a5834d909b92379cb6b38cdb58d09a6106e9a3d"
      }
    },
    {
      "fullUrl": "Medication/0cc8cb6a114b7f443691f14a0296717944b327b128d4251e69ed30592fc83e3e",
      "resource": {
        "resourceType": "Medication",
        "id": "0cc8cb6a114b7f443691f14a0296717944b327b128d4251e69ed30592fc83e3e",
        "meta": {
          "profile": [
            "https://www.medizininformatik-initiative.de/fhir/core/modul-medikation/StructureDefinition/Medication"
          ]
        },
        "identifier": [
          {
            "system": "https://fhir.miracum.org/nlp/identifiers/de-averbis-types-health-medication",
            "value": "Piperacillin"
          }
        ],
        "code": {
          "coding": [
            {
              "system": "http://fhir.de/CodeSystem/dimdi/atc",
              "code": "J01CA12",
              "display": "Piperacillin"
            }
          ]
        },
        "ingredient": [
          {
            "itemCodeableConcept": {
              "coding": [
                {
                  "system": "http://fhir.de/CodeSystem/dimdi/atc",
                  "display": "Piperacillin"
                }
              ]
            }
          }
        ]
      },
      "request": {
        "method": "PUT",
        "url": "Medication/0cc8cb6a114b7f443691f14a0296717944b327b128d4251e69ed30592fc83e3e"
      }
    },
    {
      "fullUrl": "Medication/6cad9872f814b9591d66134d26550c2f647e93e6d61aee0ff8967e4287b9bc87",
      "resource": {
        "resourceType": "Medication",
        "id": "6cad9872f814b9591d66134d26550c2f647e93e6d61aee0ff8967e4287b9bc87",
        "meta": {
          "profile": [
            "https://www.medizininformatik-initiative.de/fhir/core/modul-medikation/StructureDefinition/Medication"
          ]
        },
        "identifier": [
          {
            "system": "https://fhir.miracum.org/nlp/identifiers/de-averbis-types-health-medication",
            "value": "Tazobactam"
          }
        ],
        "code": {
          "coding": [
            {
              "system": "http://fhir.de/CodeSystem/dimdi/atc",
              "code": "J01CG02",
              "display": "Tazobactam"
            }
          ]
        },
        "ingredient": [
          {
            "itemCodeableConcept": {
              "coding": [
                {
                  "system": "http://fhir.de/CodeSystem/dimdi/atc",
                  "display": "Tazobactam"
                }
              ]
            }
          }
        ]
      },
      "request": {
        "method": "PUT",
        "url": "Medication/6cad9872f814b9591d66134d26550c2f647e93e6d61aee0ff8967e4287b9bc87"
      }
    },
    {
      "fullUrl": "Medication/bf36b88f80840e110fd01afaee01637a36fd0e3ee28af728440c39ed2f023fcb",
      "resource": {
        "resourceType": "Medication",
        "id": "bf36b88f80840e110fd01afaee01637a36fd0e3ee28af728440c39ed2f023fcb",
        "meta": {
          "profile": [
            "https://www.medizininformatik-initiative.de/fhir/core/modul-medikation/StructureDefinition/Medication"
          ]
        },
        "identifier": [
          {
            "system": "https://fhir.miracum.org/nlp/identifiers/de-averbis-types-health-medication",
            "value": "Acetylsalicylsäure_100mg_Tablette"
          }
        ],
        "code": {
          "coding": [
            {
              "system": "http://fhir.de/CodeSystem/dimdi/atc",
              "code": "A01AD05",
              "display": "Acetylsalicylsäure"
            },
            {
              "system": "http://fhir.de/CodeSystem/dimdi/atc",
              "code": "B01AC06",
              "display": "Acetylsalicylsäure"
            },
            {
              "system": "http://fhir.de/CodeSystem/dimdi/atc",
              "code": "N02BA01",
              "display": "Acetylsalicylsäure"
            }
          ]
        },
        "ingredient": [
          {
            "itemCodeableConcept": {
              "coding": [
                {
                  "system": "http://fhir.de/CodeSystem/dimdi/atc",
                  "display": "Acetylsalicylsäure"
                }
              ]
            },
            "strength": {
              "numerator": {
                "value": 100,
                "unit": "mg"
              },
              "denominator": {
                "value": 1,
                "unit": "Tablette"
              }
            }
          }
        ]
      },
      "request": {
        "method": "PUT",
        "url": "Medication/bf36b88f80840e110fd01afaee01637a36fd0e3ee28af728440c39ed2f023fcb"
      }
    },
    {
      "fullUrl": "Medication/f8dbbc9d158d4164c0d3872d6749be0aac401f70129ea63796f41e56b7cb05b6",
      "resource": {
        "resourceType": "Medication",
        "id": "f8dbbc9d158d4164c0d3872d6749be0aac401f70129ea63796f41e56b7cb05b6",
        "meta": {
          "profile": [
            "https://www.medizininformatik-initiative.de/fhir/core/modul-medikation/StructureDefinition/Medication"
          ]
        },
        "identifier": [
          {
            "system": "https://fhir.miracum.org/nlp/identifiers/de-averbis-types-health-medication",
            "value": "Antibiotika"
          }
        ],
        "code": {
          "coding": [
            {
              "system": "http://fhir.de/CodeSystem/dimdi/atc",
              "code": "A07AA",
              "display": "Antibiotika"
            },
            {
              "system": "http://fhir.de/CodeSystem/dimdi/atc",
              "code": "C05AB",
              "display": "Antibiotika"
            },
            {
              "system": "http://fhir.de/CodeSystem/dimdi/atc",
              "code": "D01AA",
              "display": "Antibiotika"
            },
            {
              "system": "http://fhir.de/CodeSystem/dimdi/atc",
              "code": "G01AA",
              "display": "Antibiotika"
            },
            {
              "system": "http://fhir.de/CodeSystem/dimdi/atc",
              "code": "J02AA",
              "display": "Antibiotika"
            },
            {
              "system": "http://fhir.de/CodeSystem/dimdi/atc",
              "code": "J04AB",
              "display": "Antibiotika"
            },
            {
              "system": "http://fhir.de/CodeSystem/dimdi/atc",
              "code": "R02AB",
              "display": "Antibiotika"
            },
            {
              "system": "http://fhir.de/CodeSystem/dimdi/atc",
              "code": "S01AA",
              "display": "Antibiotika"
            }
          ]
        },
        "ingredient": [
          {
            "itemCodeableConcept": {
              "coding": [
                {
                  "system": "http://fhir.de/CodeSystem/dimdi/atc",
                  "display": "Antibiotika"
                }
              ]
            }
          }
        ]
      },
      "request": {
        "method": "PUT",
        "url": "Medication/f8dbbc9d158d4164c0d3872d6749be0aac401f70129ea63796f41e56b7cb05b6"
      }
    },
    {
      "fullUrl": "Medication/3c925b1edfeb0d9b0e8c292c038a92ea1548b1790ef6d51b5741055543f06e2e",
      "resource": {
        "resourceType": "Medication",
        "id": "3c925b1edfeb0d9b0e8c292c038a92ea1548b1790ef6d51b5741055543f06e2e",
        "meta": {
          "profile": [
            "https://www.medizininformatik-initiative.de/fhir/core/modul-medikation/StructureDefinition/Medication"
          ]
        },
        "identifier": [
          {
            "system": "https://fhir.miracum.org/nlp/identifiers/de-averbis-types-health-medication",
            "value": "Dexamethason_6.0mg"
          }
        ],
        "code": {
          "coding": [
            {
              "system": "http://fhir.de/CodeSystem/dimdi/atc",
              "code": "A01AC02",
              "display": "Dexamethason"
            },
            {
              "system": "http://fhir.de/CodeSystem/dimdi/atc",
              "code": "C05AA09",
              "display": "Dexamethason"
            },
            {
              "system": "http://fhir.de/CodeSystem/dimdi/atc",
              "code": "D07AB19",
              "display": "Dexamethason"
            },
            {
              "system": "http://fhir.de/CodeSystem/dimdi/atc",
              "code": "D07XB05",
              "display": "Dexamethason"
            },
            {
              "system": "http://fhir.de/CodeSystem/dimdi/atc",
              "code": "D10AA03",
              "display": "Dexamethason"
            },
            {
              "system": "http://fhir.de/CodeSystem/dimdi/atc",
              "code": "H02AB02",
              "display": "Dexamethason"
            },
            {
              "system": "http://fhir.de/CodeSystem/dimdi/atc",
              "code": "R01AD03",
              "display": "Dexamethason"
            },
            {
              "system": "http://fhir.de/CodeSystem/dimdi/atc",
              "code": "R03BA19",
              "display": "Dexamethason"
            },
            {
              "system": "http://fhir.de/CodeSystem/dimdi/atc",
              "code": "S01BA01",
              "display": "Dexamethason"
            },
            {
              "system": "http://fhir.de/CodeSystem/dimdi/atc",
              "code": "S01CB01",
              "display": "Dexamethason"
            },
            {
              "system": "http://fhir.de/CodeSystem/dimdi/atc",
              "code": "S02BA06",
              "display": "Dexamethason"
            },
            {
              "system": "http://fhir.de/CodeSystem/dimdi/atc",
              "code": "S03BA01",
              "display": "Dexamethason"
            }
          ]
        },
        "ingredient": [
          {
            "itemCodeableConcept": {
              "coding": [
                {
                  "system": "http://fhir.de/CodeSystem/dimdi/atc",
                  "display": "Dexamethason"
                }
              ]
            }
          }
        ]
      },
      "request": {
        "method": "PUT",
        "url": "Medication/3c925b1edfeb0d9b0e8c292c038a92ea1548b1790ef6d51b5741055543f06e2e"
      }
    },
    {
      "fullUrl": "Medication/2669a294cf9080344cda769148d19b97270a56e93f1d8bf7ee290ce8525c4573",
      "resource": {
        "resourceType": "Medication",
        "id": "2669a294cf9080344cda769148d19b97270a56e93f1d8bf7ee290ce8525c4573",
        "meta": {
          "profile": [
            "https://www.medizininformatik-initiative.de/fhir/core/modul-medikation/StructureDefinition/Medication"
          ]
        },
        "identifier": [
          {
            "system": "https://fhir.miracum.org/nlp/identifiers/de-averbis-types-health-medication",
            "value": "Ibuprofen_500.0mg_Tablette"
          }
        ],
        "code": {
          "coding": [
            {
              "system": "http://fhir.de/CodeSystem/dimdi/atc",
              "code": "C01EB16",
              "display": "Ibuprofen"
            },
            {
              "system": "http://fhir.de/CodeSystem/dimdi/atc",
              "code": "G02CC01",
              "display": "Ibuprofen"
            },
            {
              "system": "http://fhir.de/CodeSystem/dimdi/atc",
              "code": "M01AE01",
              "display": "Ibuprofen"
            },
            {
              "system": "http://fhir.de/CodeSystem/dimdi/atc",
              "code": "M02AA13",
              "display": "Ibuprofen"
            },
            {
              "system": "http://fhir.de/CodeSystem/dimdi/atc",
              "code": "R01AX28",
              "display": "Ibuprofen"
            },
            {
              "system": "http://fhir.de/CodeSystem/dimdi/atc",
              "code": "R02AX02",
              "display": "Ibuprofen"
            },
            {
              "system": "http://fhir.de/CodeSystem/dimdi/atc",
              "code": "R02AX09",
              "display": "Ibuprofen"
            },
            {
              "system": "http://fhir.de/CodeSystem/dimdi/atc",
              "code": "R04AX01",
              "display": "Ibuprofen"
            },
            {
              "system": "http://fhir.de/CodeSystem/dimdi/atc",
              "code": "R05CA22",
              "display": "Ibuprofen"
            }
          ]
        },
        "ingredient": [
          {
            "itemCodeableConcept": {
              "coding": [
                {
                  "system": "http://fhir.de/CodeSystem/dimdi/atc",
                  "display": "Ibuprofen"
                }
              ]
            },
            "strength": {
              "numerator": {
                "value": 500.0,
                "unit": "mg"
              },
              "denominator": {
                "value": 1,
                "unit": "Tablette"
              }
            }
          }
        ]
      },
      "request": {
        "method": "PUT",
        "url": "Medication/2669a294cf9080344cda769148d19b97270a56e93f1d8bf7ee290ce8525c4573"
      }
    },
    {
      "fullUrl": "MedicationStatement/73e1ccd62f622beabeeb6d7c4ec7db3311f10e4639d91c07823f51d37b6305a8",
      "resource": {
        "resourceType": "MedicationStatement",
        "id": "73e1ccd62f622beabeeb6d7c4ec7db3311f10e4639d91c07823f51d37b6305a8",
        "meta": {
          "profile": [
            "https://www.medizininformatik-initiative.de/fhir/core/modul-medikation/StructureDefinition/MedicationStatement"
          ]
        },
        "identifier": [
          {
            "system": "https://fhir.miracum.org/nlp/identifiers/de-averbis-types-health-medication",
            "value": "Sauerstoff_None_157094"
          }
        ],
        "status": "unknown",
        "medicationReference": {
          "reference": "Medication/07910b06598920da32f9b1d62844c8cc464684f39cd6b8fc12a36b336b45f866",
          "type": "Medication",
          "identifier": {
            "system": "https://fhir.miracum.org/nlp/identifiers/de-averbis-types-health-medication",
            "value": "Sauerstoff"
          }
        },
        "subject": {
          "reference": "Patient/Test",
          "type": "Patient"
        },
        "_effectiveDateTime": {
          "extension": [
            {
              "url": "http://hl7.org/fhir/StructureDefinition/data-absent-reason",
              "valueCode": "unknown"
            }
          ]
        },
        "dateAsserted": "2000-01-01T00:00:00+00:00"
      },
      "request": {
        "method": "PUT",
        "url": "MedicationStatement/73e1ccd62f622beabeeb6d7c4ec7db3311f10e4639d91c07823f51d37b6305a8"
      }
    },
    {
      "fullUrl": "MedicationStatement/333c9318ea754acad122b2af3c793546686afa6bf300c540a8bdcd42ea2807ba",
      "resource": {
        "resourceType": "MedicationStatement",
        "id": "333c9318ea754acad122b2af3c793546686afa6bf300c540a8bdcd42ea2807ba",
        "meta": {
          "profile": [
            "https://www.medizininformatik-initiative.de/fhir/core/modul-medikation/StructureDefinition/MedicationStatement"
          ]
        },
        "identifier": [
          {
            "system": "https://fhir.miracum.org/nlp/identifiers/de-averbis-types-health-medication",
            "value": "KONTRASTMITTEL_None_157120"
          }
        ],
        "status": "unknown",
        "medicationReference": {
          "reference": "Medication/871e43c431a094ace0a13c904a5834d909b92379cb6b38cdb58d09a6106e9a3d",
          "type": "Medication",
          "identifier": {
            "system": "https://fhir.miracum.org/nlp/identifiers/de-averbis-types-health-medication",
            "value": "KONTRASTMITTEL"
          }
        },
        "subject": {
          "reference": "Patient/Test",
          "type": "Patient"
        },
        "_effectiveDateTime": {
          "extension": [
            {
              "url": "http://hl7.org/fhir/StructureDefinition/data-absent-reason",
              "valueCode": "unknown"
            }
          ]
        },
        "dateAsserted": "2000-01-01T00:00:00+00:00"
      },
      "request": {
        "method": "PUT",
        "url": "MedicationStatement/333c9318ea754acad122b2af3c793546686afa6bf300c540a8bdcd42ea2807ba"
      }
    },
    {
      "fullUrl": "MedicationStatement/454e54f384faaad550798e4446e011e5e50b04be7e2365e7a3f0c5434b3e2042",
      "resource": {
        "resourceType": "MedicationStatement",
        "id": "454e54f384faaad550798e4446e011e5e50b04be7e2365e7a3f0c5434b3e2042",
        "meta": {
          "profile": [
            "https://www.medizininformatik-initiative.de/fhir/core/modul-medikation/StructureDefinition/MedicationStatement"
          ]
        },
        "identifier": [
          {
            "system": "https://fhir.miracum.org/nlp/identifiers/de-averbis-types-health-medication",
            "value": "Piperacillin_None_156694"
          }
        ],
        "status": "unknown",
        "medicationReference": {
          "reference": "Medication/0cc8cb6a114b7f443691f14a0296717944b327b128d4251e69ed30592fc83e3e",
          "type": "Medication",
          "identifier": {
            "system": "https://fhir.miracum.org/nlp/identifiers/de-averbis-types-health-medication",
            "value": "Piperacillin"
          }
        },
        "subject": {
          "reference": "Patient/Test",
          "type": "Patient"
        },
        "_effectiveDateTime": {
          "extension": [
            {
              "url": "http://hl7.org/fhir/StructureDefinition/data-absent-reason",
              "valueCode": "unknown"
            }
          ]
        },
        "dateAsserted": "2000-01-01T00:00:00+00:00"
      },
      "request": {
        "method": "PUT",
        "url": "MedicationStatement/454e54f384faaad550798e4446e011e5e50b04be7e2365e7a3f0c5434b3e2042"
      }
    },
    {
      "fullUrl": "MedicationStatement/3f2ab87993724adb1d04d940c86048e029a6a24ff98706b35829aef96a86d620",
      "resource": {
        "resourceType": "MedicationStatement",
        "id": "3f2ab87993724adb1d04d940c86048e029a6a24ff98706b35829aef96a86d620",
        "meta": {
          "profile": [
            "https://www.medizininformatik-initiative.de/fhir/core/modul-medikation/StructureDefinition/MedicationStatement"
          ]
        },
        "identifier": [
          {
            "system": "https://fhir.miracum.org/nlp/identifiers/de-averbis-types-health-medication",
            "value": "Tazobactam_None_157162"
          }
        ],
        "status": "unknown",
        "medicationReference": {
          "reference": "Medication/6cad9872f814b9591d66134d26550c2f647e93e6d61aee0ff8967e4287b9bc87",
          "type": "Medication",
          "identifier": {
            "system": "https://fhir.miracum.org/nlp/identifiers/de-averbis-types-health-medication",
            "value": "Tazobactam"
          }
        },
        "subject": {
          "reference": "Patient/Test",
          "type": "Patient"
        },
        "_effectiveDateTime": {
          "extension": [
            {
              "url": "http://hl7.org/fhir/StructureDefinition/data-absent-reason",
              "valueCode": "unknown"
            }
          ]
        },
        "dateAsserted": "2000-01-01T00:00:00+00:00"
      },
      "request": {
        "method": "PUT",
        "url": "MedicationStatement/3f2ab87993724adb1d04d940c86048e029a6a24ff98706b35829aef96a86d620"
      }
    },
    {
      "fullUrl": "MedicationStatement/5afa3a39b3d38b6ae9c8991a91c18b255e0952b72615bfd83e690015f2369e5d",
      "resource": {
        "resourceType": "MedicationStatement",
        "id": "5afa3a39b3d38b6ae9c8991a91c18b255e0952b72615bfd83e690015f2369e5d",
        "meta": {
          "profile": [
            "https://www.medizininformatik-initiative.de/fhir/core/modul-medikation/StructureDefinition/MedicationStatement"
          ]
        },
        "identifier": [
          {
            "system": "https://fhir.miracum.org/nlp/identifiers/de-averbis-types-health-medication",
            "value": "Acetylsalicylsäure_100mg_Tablette_None_5144"
          }
        ],
        "status": "unknown",
        "medicationReference": {
          "reference": "Medication/bf36b88f80840e110fd01afaee01637a36fd0e3ee28af728440c39ed2f023fcb",
          "type": "Medication",
          "identifier": {
            "system": "https://fhir.miracum.org/nlp/identifiers/de-averbis-types-health-medication",
            "value": "Acetylsalicylsäure_100mg_Tablette"
          }
        },
        "subject": {
          "reference": "Patient/Test",
          "type": "Patient"
        },
        "_effectiveDateTime": {
          "extension": [
            {
              "url": "http://hl7.org/fhir/StructureDefinition/data-absent-reason",
              "valueCode": "unknown"
            }
          ]
        },
        "dateAsserted": "2000-01-01T00:00:00+00:00",
        "dosage": [
          {
            "text": "Aspirin 100 mg",
            "timing": {
              "repeat": {
                "when": [
                  "MORN",
                  "NOON",
                  "EVE",
                  "NIGHT"
                ]
              }
            },
            "asNeededBoolean": false,
            "doseAndRate": [
              {
                "doseQuantity": {
                  "value": 100,
                  "unit": "mg",
                  "system": "http://unitsofmeasure.org",
                  "code": "mg"
                }
              }
            ]
          }
        ]
      },
      "request": {
        "method": "PUT",
        "url": "MedicationStatement/5afa3a39b3d38b6ae9c8991a91c18b255e0952b72615bfd83e690015f2369e5d"
      }
    },
    {
      "fullUrl": "MedicationStatement/d4624444daa878281026637bb4779e11892234e8e6af2ae2cfbfe6bf5f9fae46",
      "resource": {
        "resourceType": "MedicationStatement",
        "id": "d4624444daa878281026637bb4779e11892234e8e6af2ae2cfbfe6bf5f9fae46",
        "meta": {
          "profile": [
            "https://www.medizininformatik-initiative.de/fhir/core/modul-medikation/StructureDefinition/MedicationStatement"
          ]
        },
        "identifier": [
          {
            "system": "https://fhir.miracum.org/nlp/identifiers/de-averbis-types-health-medication",
            "value": "Antibiotika_None_157188"
          }
        ],
        "status": "unknown",
        "medicationReference": {
          "reference": "Medication/f8dbbc9d158d4164c0d3872d6749be0aac401f70129ea63796f41e56b7cb05b6",
          "type": "Medication",
          "identifier": {
            "system": "https://fhir.miracum.org/nlp/identifiers/de-averbis-types-health-medication",
            "value": "Antibiotika"
          }
        },
        "subject": {
          "reference": "Patient/Test",
          "type": "Patient"
        },
        "_effectiveDateTime": {
          "extension": [
            {
              "url": "http://hl7.org/fhir/StructureDefinition/data-absent-reason",
              "valueCode": "unknown"
            }
          ]
        },
        "dateAsserted": "2000-01-01T00:00:00+00:00"
      },
      "request": {
        "method": "PUT",
        "url": "MedicationStatement/d4624444daa878281026637bb4779e11892234e8e6af2ae2cfbfe6bf5f9fae46"
      }
    },
    {
      "fullUrl": "MedicationStatement/c6fc3e4fe1943149b3c19cf6a3632006ef1f6452b52608196e0af3218f30a74e",
      "resource": {
        "resourceType": "MedicationStatement",
        "id": "c6fc3e4fe1943149b3c19cf6a3632006ef1f6452b52608196e0af3218f30a74e",
        "meta": {
          "profile": [
            "https://www.medizininformatik-initiative.de/fhir/core/modul-medikation/StructureDefinition/MedicationStatement"
          ]
        },
        "identifier": [
          {
            "system": "https://fhir.miracum.org/nlp/identifiers/de-averbis-types-health-medication",
            "value": "Dexamethason_6.0mg_None_156783"
          }
        ],
        "status": "unknown",
        "medicationReference": {
          "reference": "Medication/3c925b1edfeb0d9b0e8c292c038a92ea1548b1790ef6d51b5741055543f06e2e",
          "type": "Medication",
          "identifier": {
            "system": "https://fhir.miracum.org/nlp/identifiers/de-averbis-types-health-medication",
            "value": "Dexamethason_6.0mg"
          }
        },
        "subject": {
          "reference": "Patient/Test",
          "type": "Patient"
        },
        "_effectiveDateTime": {
          "extension": [
            {
              "url": "http://hl7.org/fhir/StructureDefinition/data-absent-reason",
              "valueCode": "unknown"
            }
          ]
        },
        "dateAsserted": "2000-01-01T00:00:00+00:00",
        "dosage": [
          {
            "text": "Dexamethason (6mg",
            "timing": {
              "repeat": {
                "when": [
                  "MORN",
                  "NOON",
                  "EVE",
                  "NIGHT"
                ]
              }
            },
            "asNeededBoolean": false,
            "doseAndRate": [
              {
                "doseQuantity": {
                  "value": 6.0,
                  "unit": "mg",
                  "system": "http://unitsofmeasure.org",
                  "code": "mg"
                }
              }
            ]
          }
        ]
      },
      "request": {
        "method": "PUT",
        "url": "MedicationStatement/c6fc3e4fe1943149b3c19cf6a3632006ef1f6452b52608196e0af3218f30a74e"
      }
    },
    {
      "fullUrl": "MedicationStatement/4297970d7eae65e1ebe20e62f7210caf00f607d1bac093c1dab43933c1a3b6b7",
      "resource": {
        "resourceType": "MedicationStatement",
        "id": "4297970d7eae65e1ebe20e62f7210caf00f607d1bac093c1dab43933c1a3b6b7",
        "meta": {
          "profile": [
            "https://www.medizininformatik-initiative.de/fhir/core/modul-medikation/StructureDefinition/MedicationStatement"
          ]
        },
        "identifier": [
          {
            "system": "https://fhir.miracum.org/nlp/identifiers/de-averbis-types-health-medication",
            "value": "Ibuprofen_500.0mg_Tablette_None_157252"
          }
        ],
        "status": "unknown",
        "medicationReference": {
          "reference": "Medication/2669a294cf9080344cda769148d19b97270a56e93f1d8bf7ee290ce8525c4573",
          "type": "Medication",
          "identifier": {
            "system": "https://fhir.miracum.org/nlp/identifiers/de-averbis-types-health-medication",
            "value": "Ibuprofen_500.0mg_Tablette"
          }
        },
        "subject": {
          "reference": "Patient/Test",
          "type": "Patient"
        },
        "_effectiveDateTime": {
          "extension": [
            {
              "url": "http://hl7.org/fhir/StructureDefinition/data-absent-reason",
              "valueCode": "unknown"
            }
          ]
        },
        "dateAsserted": "2000-01-01T00:00:00+00:00",
        "dosage": [
          {
            "text": "500 mg Ibuprofen",
            "doseAndRate": [
              {
                "doseQuantity": {
                  "value": 500.0,
                  "unit": "mg",
                  "system": "http://unitsofmeasure.org",
                  "code": "mg"
                }
              }
            ]
          }
        ]
      },
      "request": {
        "method": "PUT",
        "url": "MedicationStatement/4297970d7eae65e1ebe20e62f7210caf00f607d1bac093c1dab43933c1a3b6b7"
      }
    },
    {
      "fullUrl": "Composition/297c21306d5ed77ccb098b91f92361b328e6806b0aa85aef7e2a3546dd625110",
      "resource": {
        "resourceType": "Composition",
        "id": "297c21306d5ed77ccb098b91f92361b328e6806b0aa85aef7e2a3546dd625110",
        "identifier": {
          "system": "https://fhir.miracum.org/nlp/identifiers/ahd-analysis-result-composition",
          "value": "empty-document_ahd-analysis-result"
        },
        "status": "final",
        "type": {
          "coding": [
            {
              "system": "http://loinc.org",
              "code": "74477-1",
              "display": "Clinical document Kind of document from LOINC Document Ontology"
            }
          ],
          "text": "Clinical document Kind of document from LOINC Document Ontology"
        },
        "subject": {
          "reference": "Patient/Test",
          "type": "Patient"
        },
        "date": "2000-01-01T00:00:00+00:00",
        "author": [
          {
            "reference": "Device/ed4b6d63186983e8a7d3770ba8802ce6ce3ebb171c8eb4ab5be30c15e60fb7bf",
            "type": "Device"
          }
        ],
        "title": "AHD2FHIR NLP Processing Results 2000-01-01T00:00:00+00:00",
        "section": [
          {
            "title": "List",
            "entry": [
              {
                "reference": "List/5c0f40028e0309d147cac0d68ca7829d57162f08a570c73dcae0a460c6085d5b"
              },
              {
                "reference": "List/8704d9a2465b3acf09870d9536949691115a47eefbfdc1d471522a7bec677b99"
              },
              {
                "reference": "List/92501bc0575c774db6de289a0cb84715dfe4ef168d9fdb7ebd31a0988e1274a2"
              }
            ]
          },
          {
            "title": "Condition",
            "entry": [
              {
                "reference": "Condition/22db26747fbb8a82d427449667d5ff1803a03ca73c1e308c3bc5768c1f75cd1a"
              },
              {
                "reference": "Condition/0686e19f07dbaf90e251b9f98ff7c7a887bcc03c69cb7e39d0aafad5c1cfb35d"
              },
              {
                "reference": "Condition/e852b906f4750456bb386d91ac9c48828f1b8fe266e33e6707b8ba0dc6fb6a6e"
              },
              {
                "reference": "Condition/2e83fd912cd472e3944dc30d6fdb7b1e057d0d1472f9e08a67cb4c7cc663fd47"
              },
              {
                "reference": "Condition/30db365b30a61f4ccc656fdc3538cf71066e136beeca78fe1cf2ef00d04fa464"
              },
              {
                "reference": "Condition/cf013d9ceb0e303305b830d5262e7b7a155eb9dc9790e4f9fbf8ace29cb6437d"
              },
              {
                "reference": "Condition/71dd174faab5eee3acf62fbde3776f7966e1deaba2b5b52851b3c647b8d3e9ef"
              },
              {
                "reference": "Condition/b9f88653d776bed9b708cdbe68c0880021f29bd277a0f7c9b52264827b6a4a2a"
              },
              {
                "reference": "Condition/746f2f22f09187257a61148e34a8e05e95fa52c42dcbd123244573c932b2306e"
              },
              {
                "reference": "Condition/a5ddefa39efbb300a447f64769066b6e21b551cb3bb4f1babd791143636c8ee7"
              },
              {
                "reference": "Condition/3a40d664c023b417db56893e8e949c1cfc9880c37725bfe5feba49d605e03d0c"
              },
              {
                "reference": "Condition/23dd09f0b85ea037790978abb86722945ece7b786d41ef298f4b43cca68b280b"
              },
              {
                "reference": "Condition/b1845d8977c1fa744e9785e7269b7f7580bc5633d61a5948b8ca5f561014aaff"
              }
            ]
          },
          {
            "title": "Medication",
            "entry": [
              {
                "reference": "Medication/07910b06598920da32f9b1d62844c8cc464684f39cd6b8fc12a36b336b45f866"
              },
              {
                "reference": "Medication/871e43c431a094ace0a13c904a5834d909b92379cb6b38cdb58d09a6106e9a3d"
              },
              {
                "reference": "Medication/0cc8cb6a114b7f443691f14a0296717944b327b128d4251e69ed30592fc83e3e"
              },
              {
                "reference": "Medication/6cad9872f814b9591d66134d26550c2f647e93e6d61aee0ff8967e4287b9bc87"
              },
              {
                "reference": "Medication/bf36b88f80840e110fd01afaee01637a36fd0e3ee28af728440c39ed2f023fcb"
              },
              {
                "reference": "Medication/f8dbbc9d158d4164c0d3872d6749be0aac401f70129ea63796f41e56b7cb05b6"
              },
              {
                "reference": "Medication/3c925b1edfeb0d9b0e8c292c038a92ea1548b1790ef6d51b5741055543f06e2e"
              },
              {
                "reference": "Medication/2669a294cf9080344cda769148d19b97270a56e93f1d8bf7ee290ce8525c4573"
              }
            ]
          },
          {
            "title": "MedicationStatement",
            "entry": [
              {
                "reference": "MedicationStatement/73e1ccd62f622beabeeb6d7c4ec7db3311f10e4639d91c07823f51d37b6305a8"
              },
              {
                "reference": "MedicationStatement/333c9318ea754acad122b2af3c793546686afa6bf300c540a8bdcd42ea2807ba"
              },
              {
                "reference": "MedicationStatement/454e54f384faaad550798e4446e011e5e50b04be7e2365e7a3f0c5434b3e2042"
              },
              {
                "reference": "MedicationStatement/3f2ab87993724adb1d04d940c86048e029a6a24ff98706b35829aef96a86d620"
              },
              {
                "reference": "MedicationStatement/5afa3a39b3d38b6ae9c8991a91c18b255e0952b72615bfd83e690015f2369e5d"
              },
              {
                "reference": "MedicationStatement/d4624444daa878281026637bb4779e11892234e8e6af2ae2cfbfe6bf5f9fae46"
              },
              {
                "reference": "MedicationStatement/c6fc3e4fe1943149b3c19cf6a3632006ef1f6452b52608196e0af3218f30a74e"
              },
              {
                "reference": "MedicationStatement/4297970d7eae65e1ebe20e62f7210caf00f607d1bac093c1dab43933c1a3b6b7"
              }
            ]
          }
        ]
      },
      "request": {
        "method": "PUT",
        "url": "Composition/297c21306d5ed77ccb098b91f92361b328e6806b0aa85aef7e2a3546dd625110"
      }
    }
  ]
}