{
  "resourceType": "Bundle",
  "id": "297c21306d5ed77ccb098b91f92361b328e6806b0aa85aef7e2a3546dd625110",
  "type": "transaction",
  "entry": [
    {
      "fullUrl": "List/5c0f40028e0309d147cac0d68ca7829d57162f08a570c73dcae0a460c6085d5b",
      "resource": {
        "resourceType": "List",
        "id": "5c0f40028e0309d147cac0d68ca7829d57162f08a570c73dcae0a460c6085d5b",
        "meta": {
          "profile": [
            "https://www.medizininformatik-initiative.de/fhir/core/modul-medikation/StructureDefinition/medikationsliste"
          ]
        },
        "identifier": [
          {
            "system": "https://fhir.miracum.org/nlp/identifiers/discharge-medication-list",
            "value": "discharge_list_empty-document"
          }
        ],
        "status": "current",
        "mode": "snapshot",
        "title": "List of discharge medication",
        "code": {
          "coding": [
            {
              "system": "http://terminology.hl7.org/CodeSystem/list-example-use-codes",
              "code": "medications"
            },
            {
              "system": "http://ihe-d.de/CodeSystems/FallkontextBeiDokumentenerstellung",
              "code": "E230"
            }
          ],
          "text": "List Code"
        },
        "subject": {
          "reference": "Patient/Test",
          "type": "Patient"
        },
        "date": "2000-01-01T00:00:00+00:00",
        "emptyReason": {
          "text": "No discharge entries in document found."
        }
      },
      "request": {
        "method": "PUT",
        "url": "List/5c0f40028e0309d147cac0d68ca7829d57162f08a570c73dcae0a460c6085d5b"
      }
    },
    {
      "fullUrl": "List/8704d9a2465b3acf09870d9536949691115a47eefbfdc1d471522a7bec677b99",
      "resource": {
        "resourceType": "List",
        "id": "8704d9a2465b3acf09870d9536949691115a47eefbfdc1d471522a7bec677b99",
        "meta": {
          "profile": [
            "https://www.medizininformatik-initiative.de/fhir/core/modul-medikation/StructureDefinition/medikationsliste"
          ]
        },
        "identifier": [
          {
            "system": "https://fhir.miracum.org/nlp/identifiers/admission-medication-list",
            "value": "admission_list_empty-document"
          }
        ],
        "status": "current",
        "mode": "snapshot",
        "title": "List of admission medication",
        "code": {
          "coding": [
            {
              "system": "http://terminology.hl7.org/CodeSystem/list-example-use-codes",
              "code": "medications"
            },
            {
              "system": "http://ihe-d.de/CodeSystems/FallkontextBeiDokumentenerstellung",
              "code": "E210"
            }
          ],
          "text": "List Code"
        },
        "subject": {
          "reference": "Patient/Test",
          "type": "Patient"
        },
        "date": "2000-01-01T00:00:00+00:00",
        "emptyReason": {
          "text": "No admission entries in document found."
        }
      },
      "request": {
        "method": "PUT",
        "url": "List/8704d9a2465b3acf09870d9536949691115a47eefbfdc1d471522a7bec677b99"
      }
    },
    {
      "fullUrl": "List/92501bc0575c774db6de289a0cb84715dfe4ef168d9fdb7ebd31a0988e1274a2",
      "resource": {
        "resourceType": "List",
        "id": "92501bc0575c774db6de289a0cb84715dfe4ef168d9fdb7ebd31a0988e1274a2",
        "meta": {
          "profile": [
            "https://www.medizininformatik-initiative.de/fhir/core/modul-medikation/StructureDefinition/medikationsliste"
          ]
        },
        "identifier": [
          {
            "system": "https://fhir.miracum.org/nlp/identifiers/inpatient-medication-list",
            "value": "inpatient_list_empty-document"
          }
        ],
        "status": "current",
        "mode": "working",
        "title": "List of inpatient medication",
        "code": {
          "coding": [
            {
              "system": "http://terminology.hl7.org/CodeSystem/list-example-use-codes",
              "code": "medications"
            },
            {
              "system": "http://ihe-d.de/CodeSystems/FallkontextBeiDokumentenerstellung",
              "code": "E200"
            }
          ],
          "text": "List Code"
        },
        "subject": {
          "reference": "Patient/Test",
          "type": "Patient"
        },
        "date": "2000-01-01T00:00:00+00:00",
        "emptyReason": {
          "text": "No inpatient entries in document found."
        }
      },
      "request": {
        "method": "PUT",
        "url": "List/92501bc0575c774db6de289a0cb84715dfe4ef168d9fdb7ebd31a0988e1274a2"
      }
    },
    {
      "fullUrl": "Condition/156d845e53bdbf1dc5cf09ec7e9a5fd50d28bae66551189c670dfcf40cffb91d",
      "resource": {
        "resourceType": "Condition",
        "id": "156d845e53bdbf1dc5cf09ec7e9a5fd50d28bae66551189c670dfcf40cffb91d",
        "meta": {
          "profile": [
            "https://www.medizininformatik-initiative.de/fhir/core/modul-diagnose/StructureDefinition/Diagnose"
          ]
        },
        "identifier": [
          {
            "system": "https://fhir.miracum.org/nlp/identifiers/de-averbis-types-health-diagnosis",
            "value": "empty-document_69-97_ICD10GM_2024-R53"
          }
        ],
        "code": {
          "coding": [
            {
              "system": "http://fhir.de/CodeSystem/bfarm/icd-10-gm",
              "version": "2024",
              "code": "R53",
              "display": "Unwohlsein und Erm체dung",
              "userSelected": false
            }
          ]
        },
        "subject": {
          "reference": "Patient/Test",
          "type": "Patient"
        },
        "recordedDate": "2000-01-01T00:00:00+00:00"
      },
      "request": {
        "method": "PUT",
        "url": "Condition/156d845e53bdbf1dc5cf09ec7e9a5fd50d28bae66551189c670dfcf40cffb91d"
      }
    },
    {
      "fullUrl": "Condition/4fe78bcedbbee2063ce2661f1a63d72dd579af10b8ba0999c4652d0a6013c8ef",
      "resource": {
        "resourceType": "Condition",
        "id": "4fe78bcedbbee2063ce2661f1a63d72dd579af10b8ba0999c4652d0a6013c8ef",
        "meta": {
          "profile": [
            "https://www.medizininformatik-initiative.de/fhir/core/modul-diagnose/StructureDefinition/Diagnose"
          ]
        },
        "identifier": [
          {
            "system": "https://fhir.miracum.org/nlp/identifiers/de-averbis-types-health-diagnosis",
            "value": "empty-document_164-170_ICD10GM_2024-R05"
          }
        ],
        "code": {
          "coding": [
            {
              "system": "http://fhir.de/CodeSystem/bfarm/icd-10-gm",
              "version": "2024",
              "code": "R05",
              "display": "Husten",
              "userSelected": false
            }
          ]
        },
        "subject": {
          "reference": "Patient/Test",
          "type": "Patient"
        },
        "recordedDate": "2000-01-01T00:00:00+00:00"
      },
      "request": {
        "method": "PUT",
        "url": "Condition/4fe78bcedbbee2063ce2661f1a63d72dd579af10b8ba0999c4652d0a6013c8ef"
      }
    },
    {
      "fullUrl": "Condition/fe983ca84dd3f1c32a81d48aaed3fce1a3c1b54395c2574e5a1c4254b14ef897",
      "resource": {
        "resourceType": "Condition",
        "id": "fe983ca84dd3f1c32a81d48aaed3fce1a3c1b54395c2574e5a1c4254b14ef897",
        "meta": {
          "profile": [
            "https://www.medizininformatik-initiative.de/fhir/core/modul-diagnose/StructureDefinition/Diagnose"
          ]
        },
        "identifier": [
          {
            "system": "https://fhir.miracum.org/nlp/identifiers/de-averbis-types-health-diagnosis",
            "value": "empty-document_297-311_ICD10GM_2024-E10.90"
          }
        ],
        "clinicalStatus": {
          "coding": [
            {
              "system": "http://terminology.hl7.org/CodeSystem/condition-clinical",
              "code": "active"
            }
          ]
        },
        "code": {
          "coding": [
            {
              "system": "http://fhir.de/CodeSystem/bfarm/icd-10-gm",
              "version": "2024",
              "code": "E10.90",
              "display": "Diabetes mellitus, Typ 1: Ohne Komplikationen: Nicht als entgleist bezeichnet",
              "userSelected": false
            }
          ]
        },
        "subject": {
          "reference": "Patient/Test",
          "type": "Patient"
        },
        "recordedDate": "2000-01-01T00:00:00+00:00"
      },
      "request": {
        "method": "PUT",
        "url": "Condition/fe983ca84dd3f1c32a81d48aaed3fce1a3c1b54395c2574e5a1c4254b14ef897"
      }
    },
    {
      "fullUrl": "Condition/5ab46129e8e55e136ca0a2e9c85272ab47e5f51f70626bc1c3c54605675e6430",
      "resource": {
        "resourceType": "Condition",
        "id": "5ab46129e8e55e136ca0a2e9c85272ab47e5f51f70626bc1c3c54605675e6430",
        "meta": {
          "profile": [
            "https://www.medizininformatik-initiative.de/fhir/core/modul-diagnose/StructureDefinition/Diagnose"
          ]
        },
        "identifier": [
          {
            "system": "https://fhir.miracum.org/nlp/identifiers/de-averbis-types-health-diagnosis",
            "value": "empty-document_380-391_ICD10GM_2024-D72.8"
          }
        ],
        "code": {
          "coding": [
            {
              "system": "http://fhir.de/CodeSystem/bfarm/icd-10-gm",
              "version": "2024",
              "code": "D72.8",
              "display": "Sonstige n채her bezeichnete Krankheiten der Leukozyten",
              "userSelected": false
            }
          ]
        },
        "subject": {
          "reference": "Patient/Test",
          "type": "Patient"
        },
        "recordedDate": "2000-01-01T00:00:00+00:00"
      },
      "request": {
        "method": "PUT",
        "url": "Condition/5ab46129e8e55e136ca0a2e9c85272ab47e5f51f70626bc1c3c54605675e6430"
      }
    },
    {
      "fullUrl": "Condition/4d106ff225c143b2a08101340d43e25ea09976db1a73d2544dbabcfd8cc51e78",
      "resource": {
        "resourceType": "Condition",
        "id": "4d106ff225c143b2a08101340d43e25ea09976db1a73d2544dbabcfd8cc51e78",
        "meta": {
          "profile": [
            "https://www.medizininformatik-initiative.de/fhir/core/modul-diagnose/StructureDefinition/Diagnose"
          ]
        },
        "identifier": [
          {
            "system": "https://fhir.miracum.org/nlp/identifiers/de-averbis-types-health-diagnosis",
            "value": "empty-document_782-794_ICD10GM_2024-N83.2"
          }
        ],
        "code": {
          "coding": [
            {
              "system": "http://fhir.de/CodeSystem/bfarm/icd-10-gm",
              "version": "2024",
              "code": "N83.2",
              "display": "Sonstige und nicht n채her bezeichnete Ovarialzysten",
              "userSelected": false
            }
          ]
        },
        "subject": {
          "reference": "Patient/Test",
          "type": "Patient"
        },
        "recordedDate": "2000-01-01T00:00:00+00:00"
      },
      "request": {
        "method": "PUT",
        "url": "Condition/4d106ff225c143b2a08101340d43e25ea09976db1a73d2544dbabcfd8cc51e78"
      }
    },
    {
      "fullUrl": "Condition/5829f94eabeb2479e83f7aecb753372790c81aee5560595045a1da1cc7961644",
      "resource": {
        "resourceType": "Condition",
        "id": "5829f94eabeb2479e83f7aecb753372790c81aee5560595045a1da1cc7961644",
        "meta": {
          "profile": [
            "https://www.medizininformatik-initiative.de/fhir/core/modul-diagnose/StructureDefinition/Diagnose"
          ]
        },
        "identifier": [
          {
            "system": "https://fhir.miracum.org/nlp/identifiers/de-averbis-types-health-diagnosis",
            "value": "empty-document_855-874_ICD10GM_2024-K66.0"
          }
        ],
        "code": {
          "coding": [
            {
              "system": "http://fhir.de/CodeSystem/bfarm/icd-10-gm",
              "version": "2024",
              "code": "K66.0",
              "display": "Peritoneale Adh채sionen",
              "userSelected": false
            }
          ]
        },
        "subject": {
          "reference": "Patient/Test",
          "type": "Patient"
        },
        "recordedDate": "2000-01-01T00:00:00+00:00"
      },
      "request": {
        "method": "PUT",
        "url": "Condition/5829f94eabeb2479e83f7aecb753372790c81aee5560595045a1da1cc7961644"
      }
    },
    {
      "fullUrl": "Condition/1ee34e6a78ceb2f9999fff20cd8b65e05b2c1006aab1d539d25541359974a4ab",
      "resource": {
        "resourceType": "Condition",
        "id": "1ee34e6a78ceb2f9999fff20cd8b65e05b2c1006aab1d539d25541359974a4ab",
        "meta": {
          "profile": [
            "https://www.medizininformatik-initiative.de/fhir/core/modul-diagnose/StructureDefinition/Diagnose"
          ]
        },
        "identifier": [
          {
            "system": "https://fhir.miracum.org/nlp/identifiers/de-averbis-types-health-diagnosis",
            "value": "empty-document_971-990_ICD10GM_2024-K81.0"
          }
        ],
        "code": {
          "coding": [
            {
              "system": "http://fhir.de/CodeSystem/bfarm/icd-10-gm",
              "version": "2024",
              "code": "K81.0",
              "display": "Akute Cholezystitis",
              "userSelected": false
            }
          ]
        },
        "subject": {
          "reference": "Patient/Test",
          "type": "Patient"
        },
        "recordedDate": "2000-01-01T00:00:00+00:00"
      },
      "request": {
        "method": "PUT",
        "url": "Condition/1ee34e6a78ceb2f9999fff20cd8b65e05b2c1006aab1d539d25541359974a4ab"
      }
    },
    {
      "fullUrl": "Condition/e224aaa48bec908a2f5602396aabbabde06dce7ba63ef8f79914879c58cfc8fa",
      "resource": {
        "resourceType": "Condition",
        "id": "e224aaa48bec908a2f5602396aabbabde06dce7ba63ef8f79914879c58cfc8fa",
        "meta": {
          "profile": [
            "https://www.medizininformatik-initiative.de/fhir/core/modul-diagnose/StructureDefinition/Diagnose"
          ]
        },
        "identifier": [
          {
            "system": "https://fhir.miracum.org/nlp/identifiers/de-averbis-types-health-diagnosis",
            "value": "empty-document_1043-1063_ICD10GM_2024-K82.1"
          }
        ],
        "code": {
          "coding": [
            {
              "system": "http://fhir.de/CodeSystem/bfarm/icd-10-gm",
              "version": "2024",
              "code": "K82.1",
              "display": "Hydrops der Gallenblase",
              "userSelected": false
            }
          ]
        },
        "subject": {
          "reference": "Patient/Test",
          "type": "Patient"
        },
        "recordedDate": "2000-01-01T00:00:00+00:00"
      },
      "request": {
        "method": "PUT",
        "url": "Condition/e224aaa48bec908a2f5602396aabbabde06dce7ba63ef8f79914879c58cfc8fa"
      }
    },
    {
      "fullUrl": "Condition/46e243c7b8a983be6f0ed28d34b1962877865419de7dbfb2827505121b374f42",
      "resource": {
        "resourceType": "Condition",
        "id": "46e243c7b8a983be6f0ed28d34b1962877865419de7dbfb2827505121b374f42",
        "meta": {
          "profile": [
            "https://www.medizininformatik-initiative.de/fhir/core/modul-diagnose/StructureDefinition/Diagnose"
          ]
        },
        "identifier": [
          {
            "system": "https://fhir.miracum.org/nlp/identifiers/de-averbis-types-health-diagnosis",
            "value": "empty-document_1107-1151_ICD10GM_2024-K80.50"
          }
        ],
        "clinicalStatus": {
          "coding": [
            {
              "system": "http://terminology.hl7.org/CodeSystem/condition-clinical",
              "code": "active"
            }
          ]
        },
        "code": {
          "coding": [
            {
              "system": "http://fhir.de/CodeSystem/bfarm/icd-10-gm",
              "version": "2024",
              "code": "K80.50",
              "display": "Gallengangsstein ohne Cholangitis oder Cholezystitis: Ohne Angabe einer Gallenwegsobstruktion",
              "userSelected": false
            }
          ]
        },
        "subject": {
          "reference": "Patient/Test",
          "type": "Patient"
        },
        "recordedDate": "2000-01-01T00:00:00+00:00"
      },
      "request": {
        "method": "PUT",
        "url": "Condition/46e243c7b8a983be6f0ed28d34b1962877865419de7dbfb2827505121b374f42"
      }
    },
    {
      "fullUrl": "Condition/0b76c96e26dbf81dc1da5c3a4c35d51a93bfd89261eb4bb1d08b627a1d78df53",
      "resource": {
        "resourceType": "Condition",
        "id": "0b76c96e26dbf81dc1da5c3a4c35d51a93bfd89261eb4bb1d08b627a1d78df53",
        "meta": {
          "profile": [
            "https://www.medizininformatik-initiative.de/fhir/core/modul-diagnose/StructureDefinition/Diagnose"
          ]
        },
        "identifier": [
          {
            "system": "https://fhir.miracum.org/nlp/identifiers/de-averbis-types-health-diagnosis",
            "value": "empty-document_1603-1633_ICD10GM_2024-R06.0"
          }
        ],
        "code": {
          "coding": [
            {
              "system": "http://fhir.de/CodeSystem/bfarm/icd-10-gm",
              "version": "2024",
              "code": "R06.0",
              "display": "Dyspnoe",
              "userSelected": false
            }
          ]
        },
        "subject": {
          "reference": "Patient/Test",
          "type": "Patient"
        },
        "recordedDate": "2000-01-01T00:00:00+00:00"
      },
      "request": {
        "method": "PUT",
        "url": "Condition/0b76c96e26dbf81dc1da5c3a4c35d51a93bfd89261eb4bb1d08b627a1d78df53"
      }
    },
    {
      "fullUrl": "Device/38d8dd6fbd36daa51e8ad0ba42cbbd900de7d4583f29bc0d332b0c90a4b1b583",
      "resource": {
        "resourceType": "Device",
        "id": "38d8dd6fbd36daa51e8ad0ba42cbbd900de7d4583f29bc0d332b0c90a4b1b583",
        "identifier": [
          {
            "system": "https://fhir.miracum.org/nlp/identifiers/averbis-health-discovery-device-id",
            "value": "ahd-v7.4.0"
          }
        ],
        "status": "active",
        "manufacturer": "Averbis GmbH",
        "deviceName": [
          {
            "name": "Averbis Health Discovery",
            "type": "manufacturer-name"
          }
        ],
        "version": [
          {
            "value": "7.4.0"
          }
        ]
      },
      "request": {
        "method": "PUT",
        "url": "Device/38d8dd6fbd36daa51e8ad0ba42cbbd900de7d4583f29bc0d332b0c90a4b1b583"
      }
    },
    {
      "fullUrl": "Composition/297c21306d5ed77ccb098b91f92361b328e6806b0aa85aef7e2a3546dd625110",
      "resource": {
        "resourceType": "Composition",
        "id": "297c21306d5ed77ccb098b91f92361b328e6806b0aa85aef7e2a3546dd625110",
        "identifier": {
          "system": "https://fhir.miracum.org/nlp/identifiers/ahd-analysis-result-composition",
          "value": "empty-document_ahd-analysis-result"
        },
        "status": "final",
        "type": {
          "coding": [
            {
              "system": "http://loinc.org",
              "code": "18842-5",
              "display": "Discharge summary"
            }
          ],
          "text": "Discharge summary"
        },
        "subject": {
          "reference": "Patient/Test",
          "type": "Patient"
        },
        "date": "2000-01-01T00:00:00+00:00",
        "author": [
          {
            "reference": "Device/38d8dd6fbd36daa51e8ad0ba42cbbd900de7d4583f29bc0d332b0c90a4b1b583",
            "type": "Device"
          }
        ],
        "title": "AHD2FHIR NLP Processing Results 2000-01-01T00:00:00+00:00",
        "section": [
          {
            "title": "List",
            "entry": [
              {
                "reference": "List/5c0f40028e0309d147cac0d68ca7829d57162f08a570c73dcae0a460c6085d5b"
              },
              {
                "reference": "List/8704d9a2465b3acf09870d9536949691115a47eefbfdc1d471522a7bec677b99"
              },
              {
                "reference": "List/92501bc0575c774db6de289a0cb84715dfe4ef168d9fdb7ebd31a0988e1274a2"
              }
            ]
          },
          {
            "title": "Condition",
            "entry": [
              {
                "reference": "Condition/156d845e53bdbf1dc5cf09ec7e9a5fd50d28bae66551189c670dfcf40cffb91d"
              },
              {
                "reference": "Condition/4fe78bcedbbee2063ce2661f1a63d72dd579af10b8ba0999c4652d0a6013c8ef"
              },
              {
                "reference": "Condition/fe983ca84dd3f1c32a81d48aaed3fce1a3c1b54395c2574e5a1c4254b14ef897"
              },
              {
                "reference": "Condition/5ab46129e8e55e136ca0a2e9c85272ab47e5f51f70626bc1c3c54605675e6430"
              },
              {
                "reference": "Condition/4d106ff225c143b2a08101340d43e25ea09976db1a73d2544dbabcfd8cc51e78"
              },
              {
                "reference": "Condition/5829f94eabeb2479e83f7aecb753372790c81aee5560595045a1da1cc7961644"
              },
              {
                "reference": "Condition/1ee34e6a78ceb2f9999fff20cd8b65e05b2c1006aab1d539d25541359974a4ab"
              },
              {
                "reference": "Condition/e224aaa48bec908a2f5602396aabbabde06dce7ba63ef8f79914879c58cfc8fa"
              },
              {
                "reference": "Condition/46e243c7b8a983be6f0ed28d34b1962877865419de7dbfb2827505121b374f42"
              },
              {
                "reference": "Condition/0b76c96e26dbf81dc1da5c3a4c35d51a93bfd89261eb4bb1d08b627a1d78df53"
              }
            ]
          }
        ]
      },
      "request": {
        "method": "PUT",
        "url": "Composition/297c21306d5ed77ccb098b91f92361b328e6806b0aa85aef7e2a3546dd625110"
      }
    }
  ]
}