{
  "resourceType": "Bundle",
  "id": "297c21306d5ed77ccb098b91f92361b328e6806b0aa85aef7e2a3546dd625110",
  "type": "transaction",
  "entry": [
    {
      "fullUrl": "List/5c0f40028e0309d147cac0d68ca7829d57162f08a570c73dcae0a460c6085d5b",
      "resource": {
        "resourceType": "List",
        "id": "5c0f40028e0309d147cac0d68ca7829d57162f08a570c73dcae0a460c6085d5b",
        "meta": {
          "profile": [
            "https://www.medizininformatik-initiative.de/fhir/core/modul-medikation/StructureDefinition/medikationsliste"
          ]
        },
        "identifier": [
          {
            "system": "https://fhir.miracum.org/nlp/identifiers/discharge-medication-list",
            "value": "discharge_list_empty-document"
          }
        ],
        "status": "current",
        "mode": "snapshot",
        "title": "List of discharge medication",
        "code": {
          "coding": [
            {
              "system": "http://terminology.hl7.org/CodeSystem/list-example-use-codes",
              "code": "medications"
            },
            {
              "system": "http://ihe-d.de/CodeSystems/FallkontextBeiDokumentenerstellung",
              "code": "E230"
            }
          ],
          "text": "List Code"
        },
        "subject": {
          "reference": "Patient/Test",
          "type": "Patient"
        },
        "date": "2000-01-01T00:00:00+00:00",
        "emptyReason": {
          "text": "No discharge entries in document found."
        }
      },
      "request": {
        "method": "PUT",
        "url": "List/5c0f40028e0309d147cac0d68ca7829d57162f08a570c73dcae0a460c6085d5b"
      }
    },
    {
      "fullUrl": "List/8704d9a2465b3acf09870d9536949691115a47eefbfdc1d471522a7bec677b99",
      "resource": {
        "resourceType": "List",
        "id": "8704d9a2465b3acf09870d9536949691115a47eefbfdc1d471522a7bec677b99",
        "meta": {
          "profile": [
            "https://www.medizininformatik-initiative.de/fhir/core/modul-medikation/StructureDefinition/medikationsliste"
          ]
        },
        "identifier": [
          {
            "system": "https://fhir.miracum.org/nlp/identifiers/admission-medication-list",
            "value": "admission_list_empty-document"
          }
        ],
        "status": "current",
        "mode": "snapshot",
        "title": "List of admission medication",
        "code": {
          "coding": [
            {
              "system": "http://terminology.hl7.org/CodeSystem/list-example-use-codes",
              "code": "medications"
            },
            {
              "system": "http://ihe-d.de/CodeSystems/FallkontextBeiDokumentenerstellung",
              "code": "E210"
            }
          ],
          "text": "List Code"
        },
        "subject": {
          "reference": "Patient/Test",
          "type": "Patient"
        },
        "date": "2000-01-01T00:00:00+00:00",
        "emptyReason": {
          "text": "No admission entries in document found."
        }
      },
      "request": {
        "method": "PUT",
        "url": "List/8704d9a2465b3acf09870d9536949691115a47eefbfdc1d471522a7bec677b99"
      }
    },
    {
      "fullUrl": "List/92501bc0575c774db6de289a0cb84715dfe4ef168d9fdb7ebd31a0988e1274a2",
      "resource": {
        "resourceType": "List",
        "id": "92501bc0575c774db6de289a0cb84715dfe4ef168d9fdb7ebd31a0988e1274a2",
        "meta": {
          "profile": [
            "https://www.medizininformatik-initiative.de/fhir/core/modul-medikation/StructureDefinition/medikationsliste"
          ]
        },
        "identifier": [
          {
            "system": "https://fhir.miracum.org/nlp/identifiers/inpatient-medication-list",
            "value": "inpatient_list_empty-document"
          }
        ],
        "status": "current",
        "mode": "working",
        "title": "List of inpatient medication",
        "code": {
          "coding": [
            {
              "system": "http://terminology.hl7.org/CodeSystem/list-example-use-codes",
              "code": "medications"
            },
            {
              "system": "http://ihe-d.de/CodeSystems/FallkontextBeiDokumentenerstellung",
              "code": "E200"
            }
          ],
          "text": "List Code"
        },
        "subject": {
          "reference": "Patient/Test",
          "type": "Patient"
        },
        "date": "2000-01-01T00:00:00+00:00",
        "emptyReason": {
          "text": "No inpatient entries in document found."
        }
      },
      "request": {
        "method": "PUT",
        "url": "List/92501bc0575c774db6de289a0cb84715dfe4ef168d9fdb7ebd31a0988e1274a2"
      }
    },
    {
      "fullUrl": "Condition/9acc37c5320c2b504aa7d2f5ad5796af6fcb6e02fd6d589fceace74b0d715602",
      "resource": {
        "resourceType": "Condition",
        "id": "9acc37c5320c2b504aa7d2f5ad5796af6fcb6e02fd6d589fceace74b0d715602",
        "meta": {
          "profile": [
            "https://www.medizininformatik-initiative.de/fhir/core/modul-diagnose/StructureDefinition/Diagnose"
          ]
        },
        "identifier": [
          {
            "system": "https://fhir.miracum.org/nlp/identifiers/de-averbis-types-health-diagnosis",
            "value": "empty-document_69-97_ICD10GM_2023-R53"
          }
        ],
        "code": {
          "coding": [
            {
              "system": "http://fhir.de/CodeSystem/dimdi/icd-10-gm",
              "version": "2023",
              "code": "R53",
              "display": "Unwohlsein und Ermüdung",
              "userSelected": false
            }
          ]
        },
        "subject": {
          "reference": "Patient/Test",
          "type": "Patient"
        },
        "recordedDate": "2000-01-01T00:00:00+00:00"
      },
      "request": {
        "method": "PUT",
        "url": "Condition/9acc37c5320c2b504aa7d2f5ad5796af6fcb6e02fd6d589fceace74b0d715602"
      }
    },
    {
      "fullUrl": "Condition/1ce43c2b9ac954dd7b6e938f189fbc4719eafcd71702cef4e8f155c77cb117ca",
      "resource": {
        "resourceType": "Condition",
        "id": "1ce43c2b9ac954dd7b6e938f189fbc4719eafcd71702cef4e8f155c77cb117ca",
        "meta": {
          "profile": [
            "https://www.medizininformatik-initiative.de/fhir/core/modul-diagnose/StructureDefinition/Diagnose"
          ]
        },
        "identifier": [
          {
            "system": "https://fhir.miracum.org/nlp/identifiers/de-averbis-types-health-diagnosis",
            "value": "empty-document_164-170_ICD10GM_2023-R05"
          }
        ],
        "code": {
          "coding": [
            {
              "system": "http://fhir.de/CodeSystem/dimdi/icd-10-gm",
              "version": "2023",
              "code": "R05",
              "display": "Husten",
              "userSelected": false
            }
          ]
        },
        "subject": {
          "reference": "Patient/Test",
          "type": "Patient"
        },
        "recordedDate": "2000-01-01T00:00:00+00:00"
      },
      "request": {
        "method": "PUT",
        "url": "Condition/1ce43c2b9ac954dd7b6e938f189fbc4719eafcd71702cef4e8f155c77cb117ca"
      }
    },
    {
      "fullUrl": "Condition/19626b476203c7eb484a09ae1fb854053c40f0e7986a4ba305169797b18b5730",
      "resource": {
        "resourceType": "Condition",
        "id": "19626b476203c7eb484a09ae1fb854053c40f0e7986a4ba305169797b18b5730",
        "meta": {
          "profile": [
            "https://www.medizininformatik-initiative.de/fhir/core/modul-diagnose/StructureDefinition/Diagnose"
          ]
        },
        "identifier": [
          {
            "system": "https://fhir.miracum.org/nlp/identifiers/de-averbis-types-health-diagnosis",
            "value": "empty-document_295-309_ICD10GM_2023-E10.90"
          }
        ],
        "clinicalStatus": {
          "coding": [
            {
              "system": "http://terminology.hl7.org/CodeSystem/condition-clinical",
              "code": "active"
            }
          ]
        },
        "code": {
          "coding": [
            {
              "system": "http://fhir.de/CodeSystem/dimdi/icd-10-gm",
              "version": "2023",
              "code": "E10.90",
              "display": "Diabetes mellitus, Typ 1: Ohne Komplikationen: Nicht als entgleist bezeichnet",
              "userSelected": false
            }
          ]
        },
        "subject": {
          "reference": "Patient/Test",
          "type": "Patient"
        },
        "recordedDate": "2000-01-01T00:00:00+00:00"
      },
      "request": {
        "method": "PUT",
        "url": "Condition/19626b476203c7eb484a09ae1fb854053c40f0e7986a4ba305169797b18b5730"
      }
    },
    {
      "fullUrl": "Condition/e64f5b47eafa468cd4e56d6c1334079f43de7b9bab09d209f00eab2427748ab6",
      "resource": {
        "resourceType": "Condition",
        "id": "e64f5b47eafa468cd4e56d6c1334079f43de7b9bab09d209f00eab2427748ab6",
        "meta": {
          "profile": [
            "https://www.medizininformatik-initiative.de/fhir/core/modul-diagnose/StructureDefinition/Diagnose"
          ]
        },
        "identifier": [
          {
            "system": "https://fhir.miracum.org/nlp/identifiers/de-averbis-types-health-diagnosis",
            "value": "empty-document_378-389_ICD10GM_2023-D72.8"
          }
        ],
        "code": {
          "coding": [
            {
              "system": "http://fhir.de/CodeSystem/dimdi/icd-10-gm",
              "version": "2023",
              "code": "D72.8",
              "display": "Sonstige näher bezeichnete Krankheiten der Leukozyten",
              "userSelected": false
            }
          ]
        },
        "subject": {
          "reference": "Patient/Test",
          "type": "Patient"
        },
        "recordedDate": "2000-01-01T00:00:00+00:00"
      },
      "request": {
        "method": "PUT",
        "url": "Condition/e64f5b47eafa468cd4e56d6c1334079f43de7b9bab09d209f00eab2427748ab6"
      }
    },
    {
      "fullUrl": "Condition/fd212221e730bb0810b5eb830a7a13617b658344f59274539f71ca4c48a2c1dd",
      "resource": {
        "resourceType": "Condition",
        "id": "fd212221e730bb0810b5eb830a7a13617b658344f59274539f71ca4c48a2c1dd",
        "meta": {
          "profile": [
            "https://www.medizininformatik-initiative.de/fhir/core/modul-diagnose/StructureDefinition/Diagnose"
          ]
        },
        "identifier": [
          {
            "system": "https://fhir.miracum.org/nlp/identifiers/de-averbis-types-health-diagnosis",
            "value": "empty-document_684-695_ICD10GM_2023-D72.8"
          }
        ],
        "code": {
          "coding": [
            {
              "system": "http://fhir.de/CodeSystem/dimdi/icd-10-gm",
              "version": "2023",
              "code": "D72.8",
              "display": "Sonstige näher bezeichnete Krankheiten der Leukozyten",
              "userSelected": false
            }
          ]
        },
        "subject": {
          "reference": "Patient/Test",
          "type": "Patient"
        },
        "recordedDate": "2000-01-01T00:00:00+00:00"
      },
      "request": {
        "method": "PUT",
        "url": "Condition/fd212221e730bb0810b5eb830a7a13617b658344f59274539f71ca4c48a2c1dd"
      }
    },
    {
      "fullUrl": "Condition/31bd943a419712a7246f0e55ca729223436cb22376327be595e07108d4fe8841",
      "resource": {
        "resourceType": "Condition",
        "id": "31bd943a419712a7246f0e55ca729223436cb22376327be595e07108d4fe8841",
        "meta": {
          "profile": [
            "https://www.medizininformatik-initiative.de/fhir/core/modul-diagnose/StructureDefinition/Diagnose"
          ]
        },
        "identifier": [
          {
            "system": "https://fhir.miracum.org/nlp/identifiers/de-averbis-types-health-diagnosis",
            "value": "empty-document_775-787_ICD10GM_2023-N83.2"
          }
        ],
        "code": {
          "coding": [
            {
              "system": "http://fhir.de/CodeSystem/dimdi/icd-10-gm",
              "version": "2023",
              "code": "N83.2",
              "display": "Sonstige und nicht näher bezeichnete Ovarialzysten",
              "userSelected": false
            }
          ]
        },
        "subject": {
          "reference": "Patient/Test",
          "type": "Patient"
        },
        "recordedDate": "2000-01-01T00:00:00+00:00"
      },
      "request": {
        "method": "PUT",
        "url": "Condition/31bd943a419712a7246f0e55ca729223436cb22376327be595e07108d4fe8841"
      }
    },
    {
      "fullUrl": "Condition/efa133b30d6098fdb6d0f375d38c70d80867f38a64fe2335176413671040e98a",
      "resource": {
        "resourceType": "Condition",
        "id": "efa133b30d6098fdb6d0f375d38c70d80867f38a64fe2335176413671040e98a",
        "meta": {
          "profile": [
            "https://www.medizininformatik-initiative.de/fhir/core/modul-diagnose/StructureDefinition/Diagnose"
          ]
        },
        "identifier": [
          {
            "system": "https://fhir.miracum.org/nlp/identifiers/de-averbis-types-health-diagnosis",
            "value": "empty-document_848-867_ICD10GM_2023-K66.0"
          }
        ],
        "code": {
          "coding": [
            {
              "system": "http://fhir.de/CodeSystem/dimdi/icd-10-gm",
              "version": "2023",
              "code": "K66.0",
              "display": "Peritoneale Adhäsionen",
              "userSelected": false
            }
          ]
        },
        "subject": {
          "reference": "Patient/Test",
          "type": "Patient"
        },
        "recordedDate": "2000-01-01T00:00:00+00:00"
      },
      "request": {
        "method": "PUT",
        "url": "Condition/efa133b30d6098fdb6d0f375d38c70d80867f38a64fe2335176413671040e98a"
      }
    },
    {
      "fullUrl": "Condition/4c0cee15c2beebefda5345ef683c3edc289e7ba32a1a38802d240ed966846866",
      "resource": {
        "resourceType": "Condition",
        "id": "4c0cee15c2beebefda5345ef683c3edc289e7ba32a1a38802d240ed966846866",
        "meta": {
          "profile": [
            "https://www.medizininformatik-initiative.de/fhir/core/modul-diagnose/StructureDefinition/Diagnose"
          ]
        },
        "identifier": [
          {
            "system": "https://fhir.miracum.org/nlp/identifiers/de-averbis-types-health-diagnosis",
            "value": "empty-document_962-981_ICD10GM_2023-K81.0"
          }
        ],
        "code": {
          "coding": [
            {
              "system": "http://fhir.de/CodeSystem/dimdi/icd-10-gm",
              "version": "2023",
              "code": "K81.0",
              "display": "Akute Cholezystitis",
              "userSelected": false
            }
          ]
        },
        "subject": {
          "reference": "Patient/Test",
          "type": "Patient"
        },
        "recordedDate": "2000-01-01T00:00:00+00:00"
      },
      "request": {
        "method": "PUT",
        "url": "Condition/4c0cee15c2beebefda5345ef683c3edc289e7ba32a1a38802d240ed966846866"
      }
    },
    {
      "fullUrl": "Condition/1e865a5033ea271998ad95a7223ca627a7734702b05233adccfba815c078a48e",
      "resource": {
        "resourceType": "Condition",
        "id": "1e865a5033ea271998ad95a7223ca627a7734702b05233adccfba815c078a48e",
        "meta": {
          "profile": [
            "https://www.medizininformatik-initiative.de/fhir/core/modul-diagnose/StructureDefinition/Diagnose"
          ]
        },
        "identifier": [
          {
            "system": "https://fhir.miracum.org/nlp/identifiers/de-averbis-types-health-diagnosis",
            "value": "empty-document_1033-1053_ICD10GM_2023-K82.1"
          }
        ],
        "code": {
          "coding": [
            {
              "system": "http://fhir.de/CodeSystem/dimdi/icd-10-gm",
              "version": "2023",
              "code": "K82.1",
              "display": "Hydrops der Gallenblase",
              "userSelected": false
            }
          ]
        },
        "subject": {
          "reference": "Patient/Test",
          "type": "Patient"
        },
        "recordedDate": "2000-01-01T00:00:00+00:00"
      },
      "request": {
        "method": "PUT",
        "url": "Condition/1e865a5033ea271998ad95a7223ca627a7734702b05233adccfba815c078a48e"
      }
    },
    {
      "fullUrl": "Condition/e850aa3b789f1d4ab1c257cd09963826d3ca2bb70ebe588e1942e486b1b9332d",
      "resource": {
        "resourceType": "Condition",
        "id": "e850aa3b789f1d4ab1c257cd09963826d3ca2bb70ebe588e1942e486b1b9332d",
        "meta": {
          "profile": [
            "https://www.medizininformatik-initiative.de/fhir/core/modul-diagnose/StructureDefinition/Diagnose"
          ]
        },
        "identifier": [
          {
            "system": "https://fhir.miracum.org/nlp/identifiers/de-averbis-types-health-diagnosis",
            "value": "empty-document_1097-1141_ICD10GM_2023-K80.50"
          }
        ],
        "clinicalStatus": {
          "coding": [
            {
              "system": "http://terminology.hl7.org/CodeSystem/condition-clinical",
              "code": "active"
            }
          ]
        },
        "code": {
          "coding": [
            {
              "system": "http://fhir.de/CodeSystem/dimdi/icd-10-gm",
              "version": "2023",
              "code": "K80.50",
              "display": "Gallengangsstein ohne Cholangitis oder Cholezystitis: Ohne Angabe einer Gallenwegsobstruktion",
              "userSelected": false
            }
          ]
        },
        "subject": {
          "reference": "Patient/Test",
          "type": "Patient"
        },
        "recordedDate": "2000-01-01T00:00:00+00:00"
      },
      "request": {
        "method": "PUT",
        "url": "Condition/e850aa3b789f1d4ab1c257cd09963826d3ca2bb70ebe588e1942e486b1b9332d"
      }
    },
    {
      "fullUrl": "Condition/225a9d14f6a641def5b8cecf6cca696f28b65aa86a7f19af446e42deb1b1c14e",
      "resource": {
        "resourceType": "Condition",
        "id": "225a9d14f6a641def5b8cecf6cca696f28b65aa86a7f19af446e42deb1b1c14e",
        "meta": {
          "profile": [
            "https://www.medizininformatik-initiative.de/fhir/core/modul-diagnose/StructureDefinition/Diagnose"
          ]
        },
        "identifier": [
          {
            "system": "https://fhir.miracum.org/nlp/identifiers/de-averbis-types-health-diagnosis",
            "value": "empty-document_1585-1615_ICD10GM_2023-R06.0"
          }
        ],
        "code": {
          "coding": [
            {
              "system": "http://fhir.de/CodeSystem/dimdi/icd-10-gm",
              "version": "2023",
              "code": "R06.0",
              "display": "Dyspnoe",
              "userSelected": false
            }
          ]
        },
        "subject": {
          "reference": "Patient/Test",
          "type": "Patient"
        },
        "recordedDate": "2000-01-01T00:00:00+00:00"
      },
      "request": {
        "method": "PUT",
        "url": "Condition/225a9d14f6a641def5b8cecf6cca696f28b65aa86a7f19af446e42deb1b1c14e"
      }
    },
    {
      "fullUrl": "Device/e3747a0df03c110d3ac4cd424f3a912172c176e0d9aeece83f751ceec28ab38c",
      "resource": {
        "resourceType": "Device",
        "id": "e3747a0df03c110d3ac4cd424f3a912172c176e0d9aeece83f751ceec28ab38c",
        "identifier": [
          {
            "system": "https://fhir.miracum.org/nlp/identifiers/averbis-health-discovery-device-id",
            "value": "ahd-v6.20.0"
          }
        ],
        "status": "active",
        "manufacturer": "Averbis GmbH",
        "deviceName": [
          {
            "name": "Averbis Health Discovery",
            "type": "manufacturer-name"
          }
        ],
        "version": [
          {
            "value": "6.20.0"
          }
        ]
      },
      "request": {
        "method": "PUT",
        "url": "Device/e3747a0df03c110d3ac4cd424f3a912172c176e0d9aeece83f751ceec28ab38c"
      }
    },
    {
      "fullUrl": "Composition/297c21306d5ed77ccb098b91f92361b328e6806b0aa85aef7e2a3546dd625110",
      "resource": {
        "resourceType": "Composition",
        "id": "297c21306d5ed77ccb098b91f92361b328e6806b0aa85aef7e2a3546dd625110",
        "identifier": {
          "system": "https://fhir.miracum.org/nlp/identifiers/ahd-analysis-result-composition",
          "value": "empty-document_ahd-analysis-result"
        },
        "status": "final",
        "type": {
          "coding": [
            {
              "system": "http://loinc.org",
              "code": "18842-5",
              "display": "Discharge summary"
            }
          ],
          "text": "Discharge summary"
        },
        "subject": {
          "reference": "Patient/Test",
          "type": "Patient"
        },
        "date": "2000-01-01T00:00:00+00:00",
        "author": [
          {
            "reference": "Device/e3747a0df03c110d3ac4cd424f3a912172c176e0d9aeece83f751ceec28ab38c",
            "type": "Device"
          }
        ],
        "title": "AHD2FHIR NLP Processing Results 2000-01-01T00:00:00+00:00",
        "section": [
          {
            "title": "List",
            "entry": [
              {
                "reference": "List/5c0f40028e0309d147cac0d68ca7829d57162f08a570c73dcae0a460c6085d5b"
              },
              {
                "reference": "List/8704d9a2465b3acf09870d9536949691115a47eefbfdc1d471522a7bec677b99"
              },
              {
                "reference": "List/92501bc0575c774db6de289a0cb84715dfe4ef168d9fdb7ebd31a0988e1274a2"
              }
            ]
          },
          {
            "title": "Condition",
            "entry": [
              {
                "reference": "Condition/9acc37c5320c2b504aa7d2f5ad5796af6fcb6e02fd6d589fceace74b0d715602"
              },
              {
                "reference": "Condition/1ce43c2b9ac954dd7b6e938f189fbc4719eafcd71702cef4e8f155c77cb117ca"
              },
              {
                "reference": "Condition/19626b476203c7eb484a09ae1fb854053c40f0e7986a4ba305169797b18b5730"
              },
              {
                "reference": "Condition/e64f5b47eafa468cd4e56d6c1334079f43de7b9bab09d209f00eab2427748ab6"
              },
              {
                "reference": "Condition/fd212221e730bb0810b5eb830a7a13617b658344f59274539f71ca4c48a2c1dd"
              },
              {
                "reference": "Condition/31bd943a419712a7246f0e55ca729223436cb22376327be595e07108d4fe8841"
              },
              {
                "reference": "Condition/efa133b30d6098fdb6d0f375d38c70d80867f38a64fe2335176413671040e98a"
              },
              {
                "reference": "Condition/4c0cee15c2beebefda5345ef683c3edc289e7ba32a1a38802d240ed966846866"
              },
              {
                "reference": "Condition/1e865a5033ea271998ad95a7223ca627a7734702b05233adccfba815c078a48e"
              },
              {
                "reference": "Condition/e850aa3b789f1d4ab1c257cd09963826d3ca2bb70ebe588e1942e486b1b9332d"
              },
              {
                "reference": "Condition/225a9d14f6a641def5b8cecf6cca696f28b65aa86a7f19af446e42deb1b1c14e"
              }
            ]
          }
        ]
      },
      "request": {
        "method": "PUT",
        "url": "Composition/297c21306d5ed77ccb098b91f92361b328e6806b0aa85aef7e2a3546dd625110"
      }
    }
  ]
}