{
  "resourceType": "Bundle",
  "id": "297c21306d5ed77ccb098b91f92361b328e6806b0aa85aef7e2a3546dd625110",
  "type": "transaction",
  "entry": [
    {
      "fullUrl": "List/5c0f40028e0309d147cac0d68ca7829d57162f08a570c73dcae0a460c6085d5b",
      "resource": {
        "resourceType": "List",
        "id": "5c0f40028e0309d147cac0d68ca7829d57162f08a570c73dcae0a460c6085d5b",
        "meta": {
          "profile": [
            "https://www.medizininformatik-initiative.de/fhir/core/modul-medikation/StructureDefinition/medikationsliste"
          ]
        },
        "identifier": [
          {
            "system": "https://fhir.miracum.org/nlp/identifiers/discharge-medication-list",
            "value": "discharge_list_empty-document"
          }
        ],
        "status": "current",
        "mode": "snapshot",
        "title": "List of discharge medication",
        "code": {
          "coding": [
            {
              "system": "http://terminology.hl7.org/CodeSystem/list-example-use-codes",
              "code": "medications"
            },
            {
              "system": "http://ihe-d.de/CodeSystems/FallkontextBeiDokumentenerstellung",
              "code": "E230"
            }
          ],
          "text": "List Code"
        },
        "subject": {
          "reference": "Patient/Test",
          "type": "Patient"
        },
        "date": "2000-01-01T00:00:00+00:00",
        "emptyReason": {
          "text": "No discharge entries in document found."
        }
      },
      "request": {
        "method": "PUT",
        "url": "List/5c0f40028e0309d147cac0d68ca7829d57162f08a570c73dcae0a460c6085d5b"
      }
    },
    {
      "fullUrl": "List/8704d9a2465b3acf09870d9536949691115a47eefbfdc1d471522a7bec677b99",
      "resource": {
        "resourceType": "List",
        "id": "8704d9a2465b3acf09870d9536949691115a47eefbfdc1d471522a7bec677b99",
        "meta": {
          "profile": [
            "https://www.medizininformatik-initiative.de/fhir/core/modul-medikation/StructureDefinition/medikationsliste"
          ]
        },
        "identifier": [
          {
            "system": "https://fhir.miracum.org/nlp/identifiers/admission-medication-list",
            "value": "admission_list_empty-document"
          }
        ],
        "status": "current",
        "mode": "snapshot",
        "title": "List of admission medication",
        "code": {
          "coding": [
            {
              "system": "http://terminology.hl7.org/CodeSystem/list-example-use-codes",
              "code": "medications"
            },
            {
              "system": "http://ihe-d.de/CodeSystems/FallkontextBeiDokumentenerstellung",
              "code": "E210"
            }
          ],
          "text": "List Code"
        },
        "subject": {
          "reference": "Patient/Test",
          "type": "Patient"
        },
        "date": "2000-01-01T00:00:00+00:00",
        "emptyReason": {
          "text": "No admission entries in document found."
        }
      },
      "request": {
        "method": "PUT",
        "url": "List/8704d9a2465b3acf09870d9536949691115a47eefbfdc1d471522a7bec677b99"
      }
    },
    {
      "fullUrl": "List/92501bc0575c774db6de289a0cb84715dfe4ef168d9fdb7ebd31a0988e1274a2",
      "resource": {
        "resourceType": "List",
        "id": "92501bc0575c774db6de289a0cb84715dfe4ef168d9fdb7ebd31a0988e1274a2",
        "meta": {
          "profile": [
            "https://www.medizininformatik-initiative.de/fhir/core/modul-medikation/StructureDefinition/medikationsliste"
          ]
        },
        "identifier": [
          {
            "system": "https://fhir.miracum.org/nlp/identifiers/inpatient-medication-list",
            "value": "inpatient_list_empty-document"
          }
        ],
        "status": "current",
        "mode": "working",
        "title": "List of inpatient medication",
        "code": {
          "coding": [
            {
              "system": "http://terminology.hl7.org/CodeSystem/list-example-use-codes",
              "code": "medications"
            },
            {
              "system": "http://ihe-d.de/CodeSystems/FallkontextBeiDokumentenerstellung",
              "code": "E200"
            }
          ],
          "text": "List Code"
        },
        "subject": {
          "reference": "Patient/Test",
          "type": "Patient"
        },
        "date": "2000-01-01T00:00:00+00:00",
        "emptyReason": {
          "text": "No inpatient entries in document found."
        }
      },
      "request": {
        "method": "PUT",
        "url": "List/92501bc0575c774db6de289a0cb84715dfe4ef168d9fdb7ebd31a0988e1274a2"
      }
    },
    {
      "fullUrl": "Condition/6a715e944f2d9ba39d112d9ecf8943ec039f3afd72765b251bf7ea26524cc0c3",
      "resource": {
        "resourceType": "Condition",
        "id": "6a715e944f2d9ba39d112d9ecf8943ec039f3afd72765b251bf7ea26524cc0c3",
        "meta": {
          "profile": [
            "https://www.medizininformatik-initiative.de/fhir/core/modul-diagnose/StructureDefinition/Diagnose"
          ]
        },
        "identifier": [
          {
            "system": "https://fhir.miracum.org/nlp/identifiers/de-averbis-types-health-diagnosis",
            "value": "empty-document_70-98_ICD10GM_2020-R53"
          }
        ],
        "code": {
          "coding": [
            {
              "system": "http://fhir.de/CodeSystem/dimdi/icd-10-gm",
              "version": "2020",
              "code": "R53",
              "display": "Asthenie",
              "userSelected": false
            }
          ]
        },
        "subject": {
          "reference": "Patient/Test",
          "type": "Patient"
        },
        "recordedDate": "2000-01-01T00:00:00+00:00"
      },
      "request": {
        "method": "PUT",
        "url": "Condition/6a715e944f2d9ba39d112d9ecf8943ec039f3afd72765b251bf7ea26524cc0c3"
      }
    },
    {
      "fullUrl": "Condition/d9930a3da12e94fa3b2d11fa6d78133fddcef2eedd758c8ddcdbacb2fcacba0d",
      "resource": {
        "resourceType": "Condition",
        "id": "d9930a3da12e94fa3b2d11fa6d78133fddcef2eedd758c8ddcdbacb2fcacba0d",
        "meta": {
          "profile": [
            "https://www.medizininformatik-initiative.de/fhir/core/modul-diagnose/StructureDefinition/Diagnose"
          ]
        },
        "identifier": [
          {
            "system": "https://fhir.miracum.org/nlp/identifiers/de-averbis-types-health-diagnosis",
            "value": "empty-document_165-171_ICD10GM_2020-R05"
          }
        ],
        "code": {
          "coding": [
            {
              "system": "http://fhir.de/CodeSystem/dimdi/icd-10-gm",
              "version": "2020",
              "code": "R05",
              "display": "Husten",
              "userSelected": false
            }
          ]
        },
        "subject": {
          "reference": "Patient/Test",
          "type": "Patient"
        },
        "recordedDate": "2000-01-01T00:00:00+00:00"
      },
      "request": {
        "method": "PUT",
        "url": "Condition/d9930a3da12e94fa3b2d11fa6d78133fddcef2eedd758c8ddcdbacb2fcacba0d"
      }
    },
    {
      "fullUrl": "Condition/afca6d73c793a4a42bfe0a78a600d4f68662e9e844a3089c45a9581839fe632d",
      "resource": {
        "resourceType": "Condition",
        "id": "afca6d73c793a4a42bfe0a78a600d4f68662e9e844a3089c45a9581839fe632d",
        "meta": {
          "profile": [
            "https://www.medizininformatik-initiative.de/fhir/core/modul-diagnose/StructureDefinition/Diagnose"
          ]
        },
        "identifier": [
          {
            "system": "https://fhir.miracum.org/nlp/identifiers/de-averbis-types-health-diagnosis",
            "value": "empty-document_355-366_ICD10GM_2020-D72.8"
          }
        ],
        "code": {
          "coding": [
            {
              "system": "http://fhir.de/CodeSystem/dimdi/icd-10-gm",
              "version": "2020",
              "code": "D72.8",
              "display": "Leukozytose",
              "userSelected": false
            }
          ]
        },
        "subject": {
          "reference": "Patient/Test",
          "type": "Patient"
        },
        "recordedDate": "2000-01-01T00:00:00+00:00"
      },
      "request": {
        "method": "PUT",
        "url": "Condition/afca6d73c793a4a42bfe0a78a600d4f68662e9e844a3089c45a9581839fe632d"
      }
    },
    {
      "fullUrl": "Condition/9b65d4791d0f4d6d0a9ca9ce5f860c026d9d436b54157e5359a977f2fca8f940",
      "resource": {
        "resourceType": "Condition",
        "id": "9b65d4791d0f4d6d0a9ca9ce5f860c026d9d436b54157e5359a977f2fca8f940",
        "meta": {
          "profile": [
            "https://www.medizininformatik-initiative.de/fhir/core/modul-diagnose/StructureDefinition/Diagnose"
          ]
        },
        "identifier": [
          {
            "system": "https://fhir.miracum.org/nlp/identifiers/de-averbis-types-health-diagnosis",
            "value": "empty-document_637-648_ICD10GM_2020-D72.8"
          }
        ],
        "code": {
          "coding": [
            {
              "system": "http://fhir.de/CodeSystem/dimdi/icd-10-gm",
              "version": "2020",
              "code": "D72.8",
              "display": "Leukozytose",
              "userSelected": false
            }
          ]
        },
        "subject": {
          "reference": "Patient/Test",
          "type": "Patient"
        },
        "recordedDate": "2000-01-01T00:00:00+00:00"
      },
      "request": {
        "method": "PUT",
        "url": "Condition/9b65d4791d0f4d6d0a9ca9ce5f860c026d9d436b54157e5359a977f2fca8f940"
      }
    },
    {
      "fullUrl": "Condition/fb38d2dae243a9a1143103d8416db22c355fef39ce89b7bac1b5ef7a5faba464",
      "resource": {
        "resourceType": "Condition",
        "id": "fb38d2dae243a9a1143103d8416db22c355fef39ce89b7bac1b5ef7a5faba464",
        "meta": {
          "profile": [
            "https://www.medizininformatik-initiative.de/fhir/core/modul-diagnose/StructureDefinition/Diagnose"
          ]
        },
        "identifier": [
          {
            "system": "https://fhir.miracum.org/nlp/identifiers/de-averbis-types-health-diagnosis",
            "value": "empty-document_705-717_ICD10GM_2020-N83.2"
          }
        ],
        "code": {
          "coding": [
            {
              "system": "http://fhir.de/CodeSystem/dimdi/icd-10-gm",
              "version": "2020",
              "code": "N83.2",
              "display": "Sonstige Ovarialzyste",
              "userSelected": false
            }
          ]
        },
        "bodySite": [
          {
            "coding": [
              {
                "system": "http://snomed.info/sct",
                "code": "24028007",
                "display": "Right"
              }
            ]
          }
        ],
        "subject": {
          "reference": "Patient/Test",
          "type": "Patient"
        },
        "recordedDate": "2000-01-01T00:00:00+00:00"
      },
      "request": {
        "method": "PUT",
        "url": "Condition/fb38d2dae243a9a1143103d8416db22c355fef39ce89b7bac1b5ef7a5faba464"
      }
    },
    {
      "fullUrl": "Condition/9d4ac0d506ab8b88200c857943e0dc708bce67115cebbc38bdab7c40b600b3cd",
      "resource": {
        "resourceType": "Condition",
        "id": "9d4ac0d506ab8b88200c857943e0dc708bce67115cebbc38bdab7c40b600b3cd",
        "meta": {
          "profile": [
            "https://www.medizininformatik-initiative.de/fhir/core/modul-diagnose/StructureDefinition/Diagnose"
          ]
        },
        "identifier": [
          {
            "system": "https://fhir.miracum.org/nlp/identifiers/de-averbis-types-health-diagnosis",
            "value": "empty-document_869-888_ICD10GM_2020-K81.0"
          }
        ],
        "code": {
          "coding": [
            {
              "system": "http://fhir.de/CodeSystem/dimdi/icd-10-gm",
              "version": "2020",
              "code": "K81.0",
              "display": "Akute Cholezystitis",
              "userSelected": false
            }
          ]
        },
        "subject": {
          "reference": "Patient/Test",
          "type": "Patient"
        },
        "recordedDate": "2000-01-01T00:00:00+00:00"
      },
      "request": {
        "method": "PUT",
        "url": "Condition/9d4ac0d506ab8b88200c857943e0dc708bce67115cebbc38bdab7c40b600b3cd"
      }
    },
    {
      "fullUrl": "Condition/21ee9731b5180018a02572608d36aacafa48e0595170ecb4cbbdc5575bde2f6c",
      "resource": {
        "resourceType": "Condition",
        "id": "21ee9731b5180018a02572608d36aacafa48e0595170ecb4cbbdc5575bde2f6c",
        "meta": {
          "profile": [
            "https://www.medizininformatik-initiative.de/fhir/core/modul-diagnose/StructureDefinition/Diagnose"
          ]
        },
        "identifier": [
          {
            "system": "https://fhir.miracum.org/nlp/identifiers/de-averbis-types-health-diagnosis",
            "value": "empty-document_1401-1408_ICD10GM_2020-R06.0"
          }
        ],
        "code": {
          "coding": [
            {
              "system": "http://fhir.de/CodeSystem/dimdi/icd-10-gm",
              "version": "2020",
              "code": "R06.0",
              "display": "Dyspnoe",
              "userSelected": false
            }
          ]
        },
        "subject": {
          "reference": "Patient/Test",
          "type": "Patient"
        },
        "recordedDate": "2000-01-01T00:00:00+00:00"
      },
      "request": {
        "method": "PUT",
        "url": "Condition/21ee9731b5180018a02572608d36aacafa48e0595170ecb4cbbdc5575bde2f6c"
      }
    },
    {
      "fullUrl": "Device/736bdfe5961ada6638f52f50fea85213bc6e08bac3c5594b249223df9b90b1e6",
      "resource": {
        "resourceType": "Device",
        "id": "736bdfe5961ada6638f52f50fea85213bc6e08bac3c5594b249223df9b90b1e6",
        "identifier": [
          {
            "system": "https://fhir.miracum.org/nlp/identifiers/averbis-health-discovery-device-id",
            "value": "ahd-v5.35.1"
          }
        ],
        "status": "active",
        "manufacturer": "Averbis GmbH",
        "deviceName": [
          {
            "name": "Averbis Health Discovery",
            "type": "manufacturer-name"
          }
        ],
        "version": [
          {
            "value": "5.35.1"
          }
        ]
      },
      "request": {
        "method": "PUT",
        "url": "Device/736bdfe5961ada6638f52f50fea85213bc6e08bac3c5594b249223df9b90b1e6"
      }
    },
    {
      "fullUrl": "Composition/297c21306d5ed77ccb098b91f92361b328e6806b0aa85aef7e2a3546dd625110",
      "resource": {
        "resourceType": "Composition",
        "id": "297c21306d5ed77ccb098b91f92361b328e6806b0aa85aef7e2a3546dd625110",
        "identifier": {
          "system": "https://fhir.miracum.org/nlp/identifiers/ahd-analysis-result-composition",
          "value": "empty-document_ahd-analysis-result"
        },
        "status": "final",
        "type": {
          "coding": [
            {
              "system": "http://loinc.org",
              "code": "74477-1",
              "display": "Clinical document Kind of document from LOINC Document Ontology"
            }
          ],
          "text": "Clinical document Kind of document from LOINC Document Ontology"
        },
        "subject": {
          "reference": "Patient/Test",
          "type": "Patient"
        },
        "date": "2000-01-01T00:00:00+00:00",
        "author": [
          {
            "reference": "Device/736bdfe5961ada6638f52f50fea85213bc6e08bac3c5594b249223df9b90b1e6",
            "type": "Device"
          }
        ],
        "title": "AHD2FHIR NLP Processing Results 2000-01-01T00:00:00+00:00",
        "section": [
          {
            "title": "List",
            "entry": [
              {
                "reference": "List/5c0f40028e0309d147cac0d68ca7829d57162f08a570c73dcae0a460c6085d5b"
              },
              {
                "reference": "List/8704d9a2465b3acf09870d9536949691115a47eefbfdc1d471522a7bec677b99"
              },
              {
                "reference": "List/92501bc0575c774db6de289a0cb84715dfe4ef168d9fdb7ebd31a0988e1274a2"
              }
            ]
          },
          {
            "title": "Condition",
            "entry": [
              {
                "reference": "Condition/6a715e944f2d9ba39d112d9ecf8943ec039f3afd72765b251bf7ea26524cc0c3"
              },
              {
                "reference": "Condition/d9930a3da12e94fa3b2d11fa6d78133fddcef2eedd758c8ddcdbacb2fcacba0d"
              },
              {
                "reference": "Condition/afca6d73c793a4a42bfe0a78a600d4f68662e9e844a3089c45a9581839fe632d"
              },
              {
                "reference": "Condition/9b65d4791d0f4d6d0a9ca9ce5f860c026d9d436b54157e5359a977f2fca8f940"
              },
              {
                "reference": "Condition/fb38d2dae243a9a1143103d8416db22c355fef39ce89b7bac1b5ef7a5faba464"
              },
              {
                "reference": "Condition/9d4ac0d506ab8b88200c857943e0dc708bce67115cebbc38bdab7c40b600b3cd"
              },
              {
                "reference": "Condition/21ee9731b5180018a02572608d36aacafa48e0595170ecb4cbbdc5575bde2f6c"
              }
            ]
          }
        ]
      },
      "request": {
        "method": "PUT",
        "url": "Composition/297c21306d5ed77ccb098b91f92361b328e6806b0aa85aef7e2a3546dd625110"
      }
    }
  ]
}