{
  "resourceType": "Bundle",
  "id": "297c21306d5ed77ccb098b91f92361b328e6806b0aa85aef7e2a3546dd625110",
  "type": "transaction",
  "entry": [
    {
      "fullUrl": "List/5c0f40028e0309d147cac0d68ca7829d57162f08a570c73dcae0a460c6085d5b",
      "resource": {
        "resourceType": "List",
        "id": "5c0f40028e0309d147cac0d68ca7829d57162f08a570c73dcae0a460c6085d5b",
        "meta": {
          "profile": [
            "https://www.medizininformatik-initiative.de/fhir/core/modul-medikation/StructureDefinition/medikationsliste"
          ]
        },
        "identifier": [
          {
            "system": "https://fhir.miracum.org/nlp/identifiers/discharge-medication-list",
            "value": "discharge_list_empty-document"
          }
        ],
        "status": "current",
        "mode": "snapshot",
        "title": "List of discharge medication",
        "code": {
          "coding": [
            {
              "system": "http://terminology.hl7.org/CodeSystem/list-example-use-codes",
              "code": "medications"
            },
            {
              "system": "http://ihe-d.de/CodeSystems/FallkontextBeiDokumentenerstellung",
              "code": "E230"
            }
          ],
          "text": "List Code"
        },
        "subject": {
          "reference": "Patient/Test",
          "type": "Patient"
        },
        "date": "2000-01-01T00:00:00+00:00",
        "emptyReason": {
          "text": "No discharge entries in document found."
        }
      },
      "request": {
        "method": "PUT",
        "url": "List/5c0f40028e0309d147cac0d68ca7829d57162f08a570c73dcae0a460c6085d5b"
      }
    },
    {
      "fullUrl": "List/8704d9a2465b3acf09870d9536949691115a47eefbfdc1d471522a7bec677b99",
      "resource": {
        "resourceType": "List",
        "id": "8704d9a2465b3acf09870d9536949691115a47eefbfdc1d471522a7bec677b99",
        "meta": {
          "profile": [
            "https://www.medizininformatik-initiative.de/fhir/core/modul-medikation/StructureDefinition/medikationsliste"
          ]
        },
        "identifier": [
          {
            "system": "https://fhir.miracum.org/nlp/identifiers/admission-medication-list",
            "value": "admission_list_empty-document"
          }
        ],
        "status": "current",
        "mode": "snapshot",
        "title": "List of admission medication",
        "code": {
          "coding": [
            {
              "system": "http://terminology.hl7.org/CodeSystem/list-example-use-codes",
              "code": "medications"
            },
            {
              "system": "http://ihe-d.de/CodeSystems/FallkontextBeiDokumentenerstellung",
              "code": "E210"
            }
          ],
          "text": "List Code"
        },
        "subject": {
          "reference": "Patient/Test",
          "type": "Patient"
        },
        "date": "2000-01-01T00:00:00+00:00",
        "emptyReason": {
          "text": "No admission entries in document found."
        }
      },
      "request": {
        "method": "PUT",
        "url": "List/8704d9a2465b3acf09870d9536949691115a47eefbfdc1d471522a7bec677b99"
      }
    },
    {
      "fullUrl": "List/92501bc0575c774db6de289a0cb84715dfe4ef168d9fdb7ebd31a0988e1274a2",
      "resource": {
        "resourceType": "List",
        "id": "92501bc0575c774db6de289a0cb84715dfe4ef168d9fdb7ebd31a0988e1274a2",
        "meta": {
          "profile": [
            "https://www.medizininformatik-initiative.de/fhir/core/modul-medikation/StructureDefinition/medikationsliste"
          ]
        },
        "identifier": [
          {
            "system": "https://fhir.miracum.org/nlp/identifiers/inpatient-medication-list",
            "value": "inpatient_list_empty-document"
          }
        ],
        "status": "current",
        "mode": "working",
        "title": "List of inpatient medication",
        "code": {
          "coding": [
            {
              "system": "http://terminology.hl7.org/CodeSystem/list-example-use-codes",
              "code": "medications"
            },
            {
              "system": "http://ihe-d.de/CodeSystems/FallkontextBeiDokumentenerstellung",
              "code": "E200"
            }
          ],
          "text": "List Code"
        },
        "subject": {
          "reference": "Patient/Test",
          "type": "Patient"
        },
        "date": "2000-01-01T00:00:00+00:00",
        "emptyReason": {
          "text": "No inpatient entries in document found."
        }
      },
      "request": {
        "method": "PUT",
        "url": "List/92501bc0575c774db6de289a0cb84715dfe4ef168d9fdb7ebd31a0988e1274a2"
      }
    },
    {
      "fullUrl": "Condition/a4c8029dece201be159d482fafeb8fb78d8e69f94eef395cd2207a22679da775",
      "resource": {
        "resourceType": "Condition",
        "id": "a4c8029dece201be159d482fafeb8fb78d8e69f94eef395cd2207a22679da775",
        "meta": {
          "profile": [
            "https://www.medizininformatik-initiative.de/fhir/core/modul-diagnose/StructureDefinition/Diagnose"
          ]
        },
        "identifier": [
          {
            "system": "https://fhir.miracum.org/nlp/identifiers/de-averbis-types-health-diagnosis",
            "value": "empty-document_7-16_ICD10GM_2024-R52.9"
          }
        ],
        "code": {
          "coding": [
            {
              "system": "http://fhir.de/CodeSystem/bfarm/icd-10-gm",
              "version": "2024",
              "code": "R52.9",
              "display": "Schmerz, nicht näher bezeichnet",
              "userSelected": false
            }
          ]
        },
        "subject": {
          "reference": "Patient/Test",
          "type": "Patient"
        },
        "recordedDate": "2000-01-01T00:00:00+00:00"
      },
      "request": {
        "method": "PUT",
        "url": "Condition/a4c8029dece201be159d482fafeb8fb78d8e69f94eef395cd2207a22679da775"
      }
    },
    {
      "fullUrl": "Device/38d8dd6fbd36daa51e8ad0ba42cbbd900de7d4583f29bc0d332b0c90a4b1b583",
      "resource": {
        "resourceType": "Device",
        "id": "38d8dd6fbd36daa51e8ad0ba42cbbd900de7d4583f29bc0d332b0c90a4b1b583",
        "identifier": [
          {
            "system": "https://fhir.miracum.org/nlp/identifiers/averbis-health-discovery-device-id",
            "value": "ahd-v7.4.0"
          }
        ],
        "status": "active",
        "manufacturer": "Averbis GmbH",
        "deviceName": [
          {
            "name": "Averbis Health Discovery",
            "type": "manufacturer-name"
          }
        ],
        "version": [
          {
            "value": "7.4.0"
          }
        ]
      },
      "request": {
        "method": "PUT",
        "url": "Device/38d8dd6fbd36daa51e8ad0ba42cbbd900de7d4583f29bc0d332b0c90a4b1b583"
      }
    },
    {
      "fullUrl": "MedicationStatement/8fe008d55ef25c3fa7fb39b7f2e9437e4931e4f3ca403fc4237b7952e5418cd1",
      "resource": {
        "resourceType": "MedicationStatement",
        "id": "8fe008d55ef25c3fa7fb39b7f2e9437e4931e4f3ca403fc4237b7952e5418cd1",
        "meta": {
          "profile": [
            "https://www.medizininformatik-initiative.de/fhir/core/modul-medikation/StructureDefinition/MedicationStatement"
          ]
        },
        "identifier": [
          {
            "system": "https://fhir.miracum.org/ahd2fhir/identifiers/de-averbis-types-health-medication",
            "value": "abdamed-202404-104201_None_1729"
          }
        ],
        "status": "unknown",
        "medicationCodeableConcept": {
          "coding": [
            {
              "system": "http://fhir.de/CodeSystem/bfarm/atc",
              "version": "2024",
              "code": "N02BA01",
              "display": "Acetylsalicylsäure"
            }
          ]
        },
        "subject": {
          "reference": "Patient/Test",
          "type": "Patient"
        },
        "_effectiveDateTime": {
          "extension": [
            {
              "url": "http://hl7.org/fhir/StructureDefinition/data-absent-reason",
              "valueCode": "unknown"
            }
          ]
        },
        "dateAsserted": "2000-01-01T00:00:00+00:00"
      },
      "request": {
        "method": "PUT",
        "url": "MedicationStatement/8fe008d55ef25c3fa7fb39b7f2e9437e4931e4f3ca403fc4237b7952e5418cd1"
      }
    },
    {
      "fullUrl": "Composition/297c21306d5ed77ccb098b91f92361b328e6806b0aa85aef7e2a3546dd625110",
      "resource": {
        "resourceType": "Composition",
        "id": "297c21306d5ed77ccb098b91f92361b328e6806b0aa85aef7e2a3546dd625110",
        "identifier": {
          "system": "https://fhir.miracum.org/nlp/identifiers/ahd-analysis-result-composition",
          "value": "empty-document_ahd-analysis-result"
        },
        "status": "final",
        "type": {
          "coding": [
            {
              "system": "http://loinc.org",
              "code": "18842-5",
              "display": "Discharge summary"
            }
          ],
          "text": "Discharge summary"
        },
        "subject": {
          "reference": "Patient/Test",
          "type": "Patient"
        },
        "date": "2000-01-01T00:00:00+00:00",
        "author": [
          {
            "reference": "Device/38d8dd6fbd36daa51e8ad0ba42cbbd900de7d4583f29bc0d332b0c90a4b1b583",
            "type": "Device"
          }
        ],
        "title": "AHD2FHIR NLP Processing Results 2000-01-01T00:00:00+00:00",
        "section": [
          {
            "title": "List",
            "entry": [
              {
                "reference": "List/5c0f40028e0309d147cac0d68ca7829d57162f08a570c73dcae0a460c6085d5b"
              },
              {
                "reference": "List/8704d9a2465b3acf09870d9536949691115a47eefbfdc1d471522a7bec677b99"
              },
              {
                "reference": "List/92501bc0575c774db6de289a0cb84715dfe4ef168d9fdb7ebd31a0988e1274a2"
              }
            ]
          },
          {
            "title": "Condition",
            "entry": [
              {
                "reference": "Condition/a4c8029dece201be159d482fafeb8fb78d8e69f94eef395cd2207a22679da775"
              }
            ]
          },
          {
            "title": "MedicationStatement",
            "entry": [
              {
                "reference": "MedicationStatement/8fe008d55ef25c3fa7fb39b7f2e9437e4931e4f3ca403fc4237b7952e5418cd1"
              }
            ]
          }
        ]
      },
      "request": {
        "method": "PUT",
        "url": "Composition/297c21306d5ed77ccb098b91f92361b328e6806b0aa85aef7e2a3546dd625110"
      }
    }
  ]
}